Shimmer 1	Shimmer 1	Shimmer 1	Shimmer 1	Shimmer 1	Shimmer 1	Shimmer 1	Shimmer 1	Shimmer 1	Shimmer 1	Shimmer 1	Shimmer 1
Timestamp	Accelerometer X	Accelerometer Y	Accelerometer Z	ECG RA-LL	ECG LA-LL	Timestamp	Accelerometer X	Accelerometer Y	Accelerometer Z	ECG RA-LL	ECG LA-LL
RAW	RAW	RAW	RAW	RAW	RAW	CAL	CAL	CAL	CAL	CAL	CAL
No unit	No unit	No unit	No unit	No unit	No unit	mSecs	m/(sec^2)*	m/(sec^2)*	m/(sec^2)*	mVolts*	mVolts*
47585	1962	2033	717	0	0	61452,1789550781	-0,851485148514851	-0,148514851485149	-13,1782178217822	-8,62375719518577	-8,62375719518577
47745	2973	2074	1681	2057	2066	61457,0617675781	9,15841584158416	0,257425742574257	-3,63366336633663	-0,0125588697017268	0,0251177394034537
47905	2990	2079	1683	2052	2045	61461,9445800781	9,32673267326733	0,306930693069307	-3,61386138613861	-0,0334903192046049	-0,0627943485086342
48065	3006	2056	1680	2050	2035	61466,8273925781	9,48514851485148	0,0792079207920792	-3,64356435643564	-0,0418628990057562	-0,10465724751439
48225	2975	2085	1709	2055	2055	61471,7102050781	9,17821782178218	0,366336633663366	-3,35643564356436	-0,0209314495028781	-0,0209314495028781
48385	2985	2081	1701	2057	2069	61476,5930175781	9,27722772277228	0,326732673267327	-3,43564356435644	-0,0125588697017268	0,0376766091051805
48545	2986	2092	1710	2048	2048	61481,4758300781	9,28712871287129	0,435643564356436	-3,34653465346535	-0,0502354788069074	-0,0502354788069074
48705	2971	2072	1705	2040	2030	61486,3586425781	9,13861386138614	0,237623762376238	-3,3960396039604	-0,0837257980115123	-0,125588697017268
48865	2979	2087	1686	2053	2051	61491,2414550781	9,21782178217822	0,386138613861386	-3,58415841584158	-0,0293040293040293	-0,0376766091051805
49025	2977	2085	1681	2061	2067	61496,1242675781	9,1980198019802	0,366336633663366	-3,63366336633663	0,00418628990057562	0,0293040293040293
49185	2976	2103	1694	2054	2051	61501,0070800781	9,18811881188119	0,544554455445545	-3,50495049504951	-0,0251177394034537	-0,0376766091051805
49345	2951	2093	1683	2055	2036	61505,8898925781	8,94059405940594	0,445544554455446	-3,61386138613861	-0,0209314495028781	-0,100470957613815
49505	2978	2094	1731	2056	2052	61510,7727050781	9,20792079207921	0,455445544554455	-3,13861386138614	-0,0167451596023025	-0,0334903192046049
49665	2940	2096	1717	2062	2071	61515,6555175781	8,83168316831683	0,475247524752475	-3,27722772277228	0,00837257980115123	0,0460491889063318
49825	2992	2081	1707	2054	2058	61520,5383300781	9,34653465346535	0,326732673267327	-3,37623762376238	-0,0251177394034537	-0,00837257980115123
49985	2978	2053	1699	2049	2037	61525,4211425781	9,20792079207921	0,0495049504950495	-3,45544554455446	-0,0460491889063318	-0,0962846677132392
50145	2973	2069	1700	2051	2049	61530,3039550781	9,15841584158416	0,207920792079208	-3,44554455445545	-0,0376766091051805	-0,0460491889063318
50305	2976	2076	1698	2061	2068	61535,1867675781	9,18811881188119	0,277227722772277	-3,46534653465347	0,00418628990057562	0,0334903192046049
50465	2975	2083	1684	2059	2057	61540,0695800781	9,17821782178218	0,346534653465347	-3,6039603960396	-0,00418628990057562	-0,0125588697017268
50625	2970	2071	1696	2053	2035	61544,9523925781	9,12871287128713	0,227722772277228	-3,48514851485149	-0,0293040293040293	-0,10465724751439
50785	3004	2118	1671	2053	2043	61549,8352050781	9,46534653465346	0,693069306930693	-3,73267326732673	-0,0293040293040293	-0,0711669283097855
50945	2990	2082	1641	2057	2064	61554,7180175781	9,32673267326733	0,336633663366337	-4,02970297029703	-0,0125588697017268	0,0167451596023025
51105	2982	2094	1676	2057	2056	61559,6008300781	9,24752475247525	0,455445544554455	-3,68316831683168	-0,0125588697017268	-0,0167451596023025
51265	2981	2100	1685	2045	2033	61564,4836425781	9,23762376237624	0,514851485148515	-3,59405940594059	-0,0627943485086342	-0,113029827315542
51425	2988	2092	1699	2053	2041	61569,3664550781	9,30693069306931	0,435643564356436	-3,45544554455446	-0,0293040293040293	-0,0795395081109367
51585	2974	2108	1695	2059	2063	61574,2492675781	9,16831683168317	0,594059405940594	-3,4950495049505	-0,00418628990057562	0,0125588697017268
51745	2981	2098	1695	2058	2058	61579,1320800781	9,23762376237624	0,495049504950495	-3,4950495049505	-0,00837257980115123	-0,00837257980115123
51905	2968	2102	1697	2050	2033	61584,0148925781	9,10891089108911	0,534653465346535	-3,47524752475248	-0,0418628990057562	-0,113029827315542
52065	2980	2081	1687	2051	2037	61588,8977050781	9,22772277227723	0,326732673267327	-3,57425742574257	-0,0376766091051805	-0,0962846677132392
52225	3006	2080	1697	2059	2060	61593,7805175781	9,48514851485148	0,316831683168317	-3,47524752475248	-0,00418628990057562	0
52385	2987	2088	1693	2059	2058	61598,6633300781	9,2970297029703	0,396039603960396	-3,51485148514851	-0,00418628990057562	-0,00837257980115123
52545	2963	2064	1699	2051	2037	61603,5461425781	9,05940594059406	0,158415841584158	-3,45544554455446	-0,0376766091051805	-0,0962846677132392
52705	2999	2069	1680	2055	2035	61608,4289550781	9,41584158415842	0,207920792079208	-3,64356435643564	-0,0209314495028781	-0,10465724751439
52865	2991	2085	1683	2057	2059	61613,3117675781	9,33663366336634	0,366336633663366	-3,61386138613861	-0,0125588697017268	-0,00418628990057562
53025	2988	2073	1668	2057	2063	61618,1945800781	9,30693069306931	0,247524752475248	-3,76237623762376	-0,0125588697017268	0,0125588697017268
53185	2984	2081	1716	2051	2041	61623,0773925781	9,26732673267327	0,326732673267327	-3,28712871287129	-0,0376766091051805	-0,0795395081109367
53345	3006	2086	1693	2049	2036	61627,9602050781	9,48514851485148	0,376237623762376	-3,51485148514851	-0,0460491889063318	-0,100470957613815
53505	2983	2089	1685	2055	2056	61632,8430175781	9,25742574257426	0,405940594059406	-3,59405940594059	-0,0209314495028781	-0,0167451596023025
53665	2960	2098	1682	2054	2063	61637,7258300781	9,02970297029703	0,495049504950495	-3,62376237623762	-0,0251177394034537	0,0125588697017268
53825	2984	2100	1691	2049	2044	61642,6086425781	9,26732673267327	0,514851485148515	-3,53465346534653	-0,0460491889063318	-0,0669806384092098
53985	2984	2086	1697	2040	2031	61647,4914550781	9,26732673267327	0,376237623762376	-3,47524752475248	-0,0837257980115123	-0,121402407116693
54145	2965	2087	1694	2051	2057	61652,3742675781	9,07920792079208	0,386138613861386	-3,50495049504951	-0,0376766091051805	-0,0125588697017268
54305	2991	2067	1671	2055	2063	61657,2570800781	9,33663366336634	0,188118811881188	-3,73267326732673	-0,0209314495028781	0,0125588697017268
54465	3010	2069	1697	2048	2041	61662,1398925781	9,52475247524752	0,207920792079208	-3,47524752475248	-0,0502354788069074	-0,0795395081109367
54625	2996	2068	1698	2053	2028	61667,0227050781	9,38613861386139	0,198019801980198	-3,46534653465347	-0,0293040293040293	-0,13396127681842
54785	2973	2088	1708	2056	2053	61671,9055175781	9,15841584158416	0,396039603960396	-3,36633663366337	-0,0167451596023025	-0,0293040293040293
54945	2978	2098	1697	2059	2066	61676,7883300781	9,20792079207921	0,495049504950495	-3,47524752475248	-0,00418628990057562	0,0251177394034537
55105	2992	2085	1700	2050	2046	61681,6711425781	9,34653465346535	0,366336633663366	-3,44554455445545	-0,0418628990057562	-0,0586080586080586
55265	2974	2080	1703	2046	2030	61686,5539550781	9,16831683168317	0,316831683168317	-3,41584158415842	-0,0586080586080586	-0,125588697017268
55425	2997	2069	1711	2048	2053	61691,4367675781	9,3960396039604	0,207920792079208	-3,33663366336634	-0,0502354788069074	-0,0293040293040293
55585	2974	2086	1673	2050	2065	61696,3195800781	9,16831683168317	0,376237623762376	-3,71287128712871	-0,0418628990057562	0,0209314495028781
55745	2986	2099	1683	2050	2049	61701,2023925781	9,28712871287129	0,504950495049505	-3,61386138613861	-0,0418628990057562	-0,0460491889063318
55905	2960	2079	1687	2045	2030	61706,0852050781	9,02970297029703	0,306930693069307	-3,57425742574257	-0,0627943485086342	-0,125588697017268
56065	2971	2092	1705	2047	2046	61710,9680175781	9,13861386138614	0,435643564356436	-3,3960396039604	-0,054421768707483	-0,0586080586080586
56225	3003	2093	1688	2058	2067	61715,8508300781	9,45544554455446	0,445544554455446	-3,56435643564356	-0,00837257980115123	0,0293040293040293
56385	2970	2078	1688	2050	2051	61720,7336425781	9,12871287128713	0,297029702970297	-3,56435643564356	-0,0418628990057562	-0,0376766091051805
56545	2981	2073	1704	2047	2032	61725,6164550781	9,23762376237624	0,247524752475248	-3,40594059405941	-0,054421768707483	-0,117216117216117
56705	2988	2079	1705	2051	2049	61730,4992675781	9,30693069306931	0,306930693069307	-3,3960396039604	-0,0376766091051805	-0,0460491889063318
56865	2984	2095	1694	2059	2069	61735,3820800781	9,26732673267327	0,465346534653465	-3,50495049504951	-0,00418628990057562	0,0376766091051805
57025	2993	2096	1703	2044	2054	61740,2648925781	9,35643564356436	0,475247524752475	-3,41584158415842	-0,0669806384092098	-0,0251177394034537
57185	2984	2071	1682	2045	2034	61745,1477050781	9,26732673267327	0,227722772277228	-3,62376237623762	-0,0627943485086342	-0,108843537414966
57345	2995	2073	1711	2051	2047	61750,0305175781	9,37623762376238	0,247524752475248	-3,33663366336634	-0,0376766091051805	-0,054421768707483
57505	2982	2071	1693	2055	2070	61754,9133300781	9,24752475247525	0,227722772277228	-3,51485148514851	-0,0209314495028781	0,0418628990057562
57665	2987	2087	1711	2051	2058	61759,7961425781	9,2970297029703	0,386138613861386	-3,33663366336634	-0,0376766091051805	-0,00837257980115123
57825	2982	2068	1693	2047	2031	61764,6789550781	9,24752475247525	0,198019801980198	-3,51485148514851	-0,054421768707483	-0,121402407116693
57985	2928	2078	1720	2045	2034	61769,5617675781	8,71287128712871	0,297029702970297	-3,24752475247525	-0,0627943485086342	-0,108843537414966
58145	3014	2096	1683	2051	2063	61774,4445800781	9,56435643564356	0,475247524752475	-3,61386138613861	-0,0376766091051805	0,0125588697017268
58305	2993	2069	1685	2053	2059	61779,3273925781	9,35643564356436	0,207920792079208	-3,59405940594059	-0,0293040293040293	-0,00418628990057562
58465	2976	2064	1681	2047	2037	61784,2102050781	9,18811881188119	0,158415841584158	-3,63366336633663	-0,054421768707483	-0,0962846677132392
58625	2990	2092	1669	2045	2036	61789,0930175781	9,32673267326733	0,435643564356436	-3,75247524752475	-0,0627943485086342	-0,100470957613815
58785	2980	2079	1702	2055	2063	61793,9758300781	9,22772277227723	0,306930693069307	-3,42574257425743	-0,0209314495028781	0,0125588697017268
58945	2982	2065	1685	2059	2065	61798,8586425781	9,24752475247525	0,168316831683168	-3,59405940594059	-0,00418628990057562	0,0209314495028781
59105	2970	2085	1697	2050	2041	61803,7414550781	9,12871287128713	0,366336633663366	-3,47524752475248	-0,0418628990057562	-0,0795395081109367
59265	2986	2082	1684	2054	2039	61808,6242675781	9,28712871287129	0,336633663366337	-3,6039603960396	-0,0251177394034537	-0,0879120879120879
59425	2990	2106	1704	2059	2061	61813,5070800781	9,32673267326733	0,574257425742574	-3,40594059405941	-0,00418628990057562	0,00418628990057562
59585	2980	2106	1668	2060	2067	61818,3898925781	9,22772277227723	0,574257425742574	-3,76237623762376	0	0,0293040293040293
59745	2970	2096	1723	2047	2042	61823,2727050781	9,12871287128713	0,475247524752475	-3,21782178217822	-0,054421768707483	-0,0753532182103611
59905	2982	2080	1675	2048	2036	61828,1555175781	9,24752475247525	0,316831683168317	-3,69306930693069	-0,0502354788069074	-0,100470957613815
60065	2967	2075	1715	2057	2059	61833,0383300781	9,0990099009901	0,267326732673267	-3,2970297029703	-0,0125588697017268	-0,00418628990057562
60225	2984	2089	1684	2062	2066	61837,9211425781	9,26732673267327	0,405940594059406	-3,6039603960396	0,00837257980115123	0,0251177394034537
60385	2985	2089	1683	2056	2043	61842,8039550781	9,27722772277228	0,405940594059406	-3,61386138613861	-0,0167451596023025	-0,0711669283097855
60545	2977	2077	1702	2057	2036	61847,6867675781	9,1980198019802	0,287128712871287	-3,42574257425743	-0,0125588697017268	-0,100470957613815
60705	2971	2107	1692	2062	2059	61852,5695800781	9,13861386138614	0,584158415841584	-3,52475247524752	0,00837257980115123	-0,00418628990057562
60865	2977	2060	1698	2063	2069	61857,4523925781	9,1980198019802	0,118811881188119	-3,46534653465347	0,0125588697017268	0,0376766091051805
61025	2965	2058	1710	2058	2049	61862,3352050781	9,07920792079208	0,099009900990099	-3,34653465346535	-0,00837257980115123	-0,0460491889063318
61185	2986	2079	1696	2055	2035	61867,2180175781	9,28712871287129	0,306930693069307	-3,48514851485149	-0,0209314495028781	-0,10465724751439
61345	2994	2091	1703	2056	2056	61872,1008300781	9,36633663366337	0,425742574257426	-3,41584158415842	-0,0167451596023025	-0,0167451596023025
61505	2992	2093	1691	2056	2068	61876,9836425781	9,34653465346535	0,445544554455446	-3,53465346534653	-0,0167451596023025	0,0334903192046049
61665	2964	2096	1704	2052	2049	61881,8664550781	9,06930693069307	0,475247524752475	-3,40594059405941	-0,0334903192046049	-0,0460491889063318
61825	2974	2078	1694	2053	2037	61886,7492675781	9,16831683168317	0,297029702970297	-3,50495049504951	-0,0293040293040293	-0,0962846677132392
61985	2993	2083	1667	2055	2052	61891,6320800781	9,35643564356436	0,346534653465347	-3,77227722772277	-0,0209314495028781	-0,0334903192046049
62145	2981	2099	1700	2058	2066	61896,5148925781	9,23762376237624	0,504950495049505	-3,44554455445545	-0,00837257980115123	0,0251177394034537
62305	2936	2105	1695	2054	2047	61901,3977050781	8,79207920792079	0,564356435643564	-3,4950495049505	-0,0251177394034537	-0,054421768707483
62465	3012	2080	1720	2048	2031	61906,2805175781	9,54455445544554	0,316831683168317	-3,24752475247525	-0,0502354788069074	-0,121402407116693
62625	2988	2098	1713	2055	2053	61911,1633300781	9,30693069306931	0,495049504950495	-3,31683168316832	-0,0209314495028781	-0,0293040293040293
62785	2964	2061	1697	2058	2070	61916,0461425781	9,06930693069307	0,128712871287129	-3,47524752475248	-0,00837257980115123	0,0418628990057562
62945	2994	2065	1698	2054	2050	61920,9289550781	9,36633663366337	0,168316831683168	-3,46534653465347	-0,0251177394034537	-0,0418628990057562
63105	2981	2082	1686	2045	2031	61925,8117675781	9,23762376237624	0,336633663366337	-3,58415841584158	-0,0627943485086342	-0,121402407116693
63265	2973	2080	1690	2049	2041	61930,6945800781	9,15841584158416	0,316831683168317	-3,54455445544554	-0,0460491889063318	-0,0795395081109367
63425	2991	2089	1690	2057	2065	61935,5773925781	9,33663366336634	0,405940594059406	-3,54455445544554	-0,0125588697017268	0,0209314495028781
63585	2978	2082	1687	2058	2053	61940,4602050781	9,20792079207921	0,336633663366337	-3,57425742574257	-0,00837257980115123	-0,0293040293040293
63745	2992	2074	1697	2047	2032	61945,3430175781	9,34653465346535	0,257425742574257	-3,47524752475248	-0,054421768707483	-0,117216117216117
63905	2970	2098	1690	2051	2044	61950,2258300781	9,12871287128713	0,495049504950495	-3,54455445544554	-0,0376766091051805	-0,0669806384092098
64065	3000	2103	1702	2053	2066	61955,1086425781	9,42574257425743	0,544554455445545	-3,42574257425743	-0,0293040293040293	0,0251177394034537
64225	2976	2080	1700	2049	2052	61959,9914550781	9,18811881188119	0,316831683168317	-3,44554455445545	-0,0460491889063318	-0,0334903192046049
64385	2967	2068	1704	2045	2032	61964,8742675781	9,0990099009901	0,198019801980198	-3,40594059405941	-0,0627943485086342	-0,117216117216117
64545	3001	2091	1691	2051	2040	61969,7570800781	9,43564356435644	0,425742574257426	-3,53465346534653	-0,0376766091051805	-0,0837257980115123
64705	3005	2054	1692	2056	2064	61974,6398925781	9,47524752475248	0,0594059405940594	-3,52475247524752	-0,0167451596023025	0,0167451596023025
64865	2986	2075	1699	2057	2061	61979,5227050781	9,28712871287129	0,267326732673267	-3,45544554455446	-0,0125588697017268	0,00418628990057562
65025	2981	2094	1686	2055	2035	61984,4055175781	9,23762376237624	0,455445544554455	-3,58415841584158	-0,0209314495028781	-0,10465724751439
65185	2984	2081	1695	2057	2044	61989,2883300781	9,26732673267327	0,326732673267327	-3,4950495049505	-0,0125588697017268	-0,0669806384092098
65345	3004	2079	1708	2058	2067	61994,1711425781	9,46534653465346	0,306930693069307	-3,36633663366337	-0,00837257980115123	0,0293040293040293
65505	2983	2078	1705	2059	2065	61999,0539550781	9,25742574257426	0,297029702970297	-3,3960396039604	-0,00418628990057562	0,0209314495028781
129	2995	2090	1669	2050	2040	62003,9367675781	9,37623762376238	0,415841584158416	-3,75247524752475	-0,0418628990057562	-0,0837257980115123
289	2992	2078	1693	2048	2039	62008,8195800781	9,34653465346535	0,297029702970297	-3,51485148514851	-0,0502354788069074	-0,0879120879120879
449	2992	2097	1688	2055	2063	62013,7023925781	9,34653465346535	0,485148514851485	-3,56435643564356	-0,0209314495028781	0,0125588697017268
609	2977	2086	1683	2056	2065	62018,5852050781	9,1980198019802	0,376237623762376	-3,61386138613861	-0,0167451596023025	0,0209314495028781
769	2988	2104	1708	2049	2039	62023,4680175781	9,30693069306931	0,554455445544555	-3,36633663366337	-0,0460491889063318	-0,0879120879120879
929	2982	2075	1685	2051	2039	62028,3508300781	9,24752475247525	0,267326732673267	-3,59405940594059	-0,0376766091051805	-0,0879120879120879
1089	3016	2075	1683	2056	2060	62033,2336425781	9,58415841584158	0,267326732673267	-3,61386138613861	-0,0167451596023025	0
1249	2994	2075	1692	2060	2067	62038,1164550781	9,36633663366337	0,267326732673267	-3,52475247524752	0	0,0293040293040293
1409	2975	2084	1695	2052	2044	62042,9992675781	9,17821782178218	0,356435643564356	-3,4950495049505	-0,0334903192046049	-0,0669806384092098
1569	2968	2084	1685	2047	2037	62047,8820800781	9,10891089108911	0,356435643564356	-3,59405940594059	-0,054421768707483	-0,0962846677132392
1729	2991	2075	1705	2056	2060	62052,7648925781	9,33663366336634	0,267326732673267	-3,3960396039604	-0,0167451596023025	0
1889	2976	2087	1692	2061	2067	62057,6477050781	9,18811881188119	0,386138613861386	-3,52475247524752	0,00418628990057562	0,0293040293040293
2049	2992	2073	1681	2051	2045	62062,5305175781	9,34653465346535	0,247524752475248	-3,63366336633663	-0,0376766091051805	-0,0627943485086342
2209	2983	2109	1684	2051	2033	62067,4133300781	9,25742574257426	0,603960396039604	-3,6039603960396	-0,0376766091051805	-0,113029827315542
2369	3004	2126	1662	2051	2056	62072,2961425781	9,46534653465346	0,772277227722772	-3,82178217821782	-0,0376766091051805	-0,0167451596023025
2529	2981	2080	1684	2059	2066	62077,1789550781	9,23762376237624	0,316831683168317	-3,6039603960396	-0,00418628990057562	0,0251177394034537
2689	2986	2063	1695	2050	2047	62082,0617675781	9,28712871287129	0,148514851485149	-3,4950495049505	-0,0418628990057562	-0,054421768707483
2849	2978	2083	1693	2047	2032	62086,9445800781	9,20792079207921	0,346534653465347	-3,51485148514851	-0,054421768707483	-0,117216117216117
3009	2978	2075	1695	2053	2055	62091,8273925781	9,20792079207921	0,267326732673267	-3,4950495049505	-0,0293040293040293	-0,0209314495028781
3169	2975	2077	1700	2062	2071	62096,7102050781	9,17821782178218	0,287128712871287	-3,44554455445545	0,00837257980115123	0,0460491889063318
3329	2992	2083	1701	2053	2048	62101,5930175781	9,34653465346535	0,346534653465347	-3,43564356435644	-0,0293040293040293	-0,0502354788069074
3489	2971	2097	1678	2051	2031	62106,4758300781	9,13861386138614	0,485148514851485	-3,66336633663366	-0,0376766091051805	-0,121402407116693
3649	2990	2073	1689	2055	2051	62111,3586425781	9,32673267326733	0,247524752475248	-3,55445544554455	-0,0209314495028781	-0,0376766091051805
3809	2976	2088	1686	2059	2070	62116,2414550781	9,18811881188119	0,396039603960396	-3,58415841584158	-0,00418628990057562	0,0418628990057562
3969	2986	2107	1706	2052	2052	62121,1242675781	9,28712871287129	0,584158415841584	-3,38613861386139	-0,0334903192046049	-0,0334903192046049
4129	2992	2099	1687	2046	2034	62126,0070800781	9,34653465346535	0,504950495049505	-3,57425742574257	-0,0586080586080586	-0,108843537414966
4289	2992	2078	1685	2052	2045	62130,8898925781	9,34653465346535	0,297029702970297	-3,59405940594059	-0,0334903192046049	-0,0627943485086342
4449	2992	2093	1718	2056	2065	62135,7727050781	9,34653465346535	0,445544554455446	-3,26732673267327	-0,0167451596023025	0,0209314495028781
4609	2955	2083	1697	2058	2051	62140,6555175781	8,98019801980198	0,346534653465347	-3,47524752475248	-0,00837257980115123	-0,0376766091051805
4769	2986	2095	1687	2051	2032	62145,5383300781	9,28712871287129	0,465346534653465	-3,57425742574257	-0,0376766091051805	-0,117216117216117
4929	2976	2072	1704	2055	2044	62150,4211425781	9,18811881188119	0,237623762376238	-3,40594059405941	-0,0209314495028781	-0,0669806384092098
5089	2973	2086	1694	2054	2063	62155,3039550781	9,15841584158416	0,376237623762376	-3,50495049504951	-0,0251177394034537	0,0125588697017268
5249	2969	2081	1688	2047	2054	62160,1867675781	9,11881188118812	0,326732673267327	-3,56435643564356	-0,054421768707483	-0,0251177394034537
5409	2994	2090	1683	2037	2028	62165,0695800781	9,36633663366337	0,415841584158416	-3,61386138613861	-0,0962846677132392	-0,13396127681842
5569	2994	2075	1683	2045	2035	62169,9523925781	9,36633663366337	0,267326732673267	-3,61386138613861	-0,0627943485086342	-0,10465724751439
5729	2985	2086	1681	2057	2060	62174,8352050781	9,27722772277228	0,376237623762376	-3,63366336633663	-0,0125588697017268	0
5889	2997	2091	1691	2051	2053	62179,7180175781	9,3960396039604	0,425742574257426	-3,53465346534653	-0,0376766091051805	-0,0293040293040293
6049	2968	2091	1685	2047	2033	62184,6008300781	9,10891089108911	0,425742574257426	-3,59405940594059	-0,054421768707483	-0,113029827315542
6209	2977	2083	1708	2047	2030	62189,4836425781	9,1980198019802	0,346534653465347	-3,36633663366337	-0,054421768707483	-0,125588697017268
6369	2984	2087	1698	2055	2063	62194,3664550781	9,26732673267327	0,386138613861386	-3,46534653465347	-0,0209314495028781	0,0125588697017268
6529	2973	2085	1704	2049	2056	62199,2492675781	9,15841584158416	0,366336633663366	-3,40594059405941	-0,0460491889063318	-0,0167451596023025
6689	2964	2105	1703	2043	2035	62204,1320800781	9,06930693069307	0,564356435643564	-3,41584158415842	-0,0711669283097855	-0,10465724751439
6849	2983	2090	1674	2045	2033	62209,0148925781	9,25742574257426	0,415841584158416	-3,7029702970297	-0,0627943485086342	-0,113029827315542
7009	2976	2103	1698	2055	2055	62213,8977050781	9,18811881188119	0,544554455445545	-3,46534653465347	-0,0209314495028781	-0,0209314495028781
7169	2981	2079	1705	2056	2055	62218,7805175781	9,23762376237624	0,306930693069307	-3,3960396039604	-0,0167451596023025	-0,0209314495028781
7329	3000	2118	1644	2049	2034	62223,6633300781	9,42574257425743	0,693069306930693	-4	-0,0460491889063318	-0,108843537414966
7489	2986	2082	1676	2055	2030	62228,5461425781	9,28712871287129	0,336633663366337	-3,68316831683168	-0,0209314495028781	-0,125588697017268
7649	2964	2088	1719	2056	2057	62233,4289550781	9,06930693069307	0,396039603960396	-3,25742574257426	-0,0167451596023025	-0,0125588697017268
7809	2960	2087	1713	2056	2063	62238,3117675781	9,02970297029703	0,386138613861386	-3,31683168316832	-0,0167451596023025	0,0125588697017268
7969	2968	2086	1731	2049	2040	62243,1945800781	9,10891089108911	0,376237623762376	-3,13861386138614	-0,0460491889063318	-0,0837257980115123
8129	2992	2095	1679	2039	2032	62248,0773925781	9,34653465346535	0,465346534653465	-3,65346534653465	-0,0879120879120879	-0,117216117216117
8289	2996	2074	1702	2048	2056	62252,9602050781	9,38613861386139	0,257425742574257	-3,42574257425743	-0,0502354788069074	-0,0167451596023025
8449	2982	2098	1680	2055	2061	62257,8430175781	9,24752475247525	0,495049504950495	-3,64356435643564	-0,0209314495028781	0,00418628990057562
8609	2968	2077	1705	2049	2039	62262,7258300781	9,10891089108911	0,287128712871287	-3,3960396039604	-0,0460491889063318	-0,0879120879120879
8769	2983	2087	1703	2047	2031	62267,6086425781	9,25742574257426	0,386138613861386	-3,41584158415842	-0,054421768707483	-0,121402407116693
8929	2985	2085	1662	2052	2054	62272,4914550781	9,27722772277228	0,366336633663366	-3,82178217821782	-0,0334903192046049	-0,0251177394034537
9089	2980	2077	1704	2055	2065	62277,3742675781	9,22772277227723	0,287128712871287	-3,40594059405941	-0,0209314495028781	0,0209314495028781
9249	2995	2077	1698	2050	2043	62282,2570800781	9,37623762376238	0,287128712871287	-3,46534653465347	-0,0418628990057562	-0,0711669283097855
9409	2980	2071	1679	2046	2031	62287,1398925781	9,22772277227723	0,227722772277228	-3,65346534653465	-0,0586080586080586	-0,121402407116693
9569	2948	2086	1700	2051	2053	62292,0227050781	8,91089108910891	0,376237623762376	-3,44554455445545	-0,0376766091051805	-0,0293040293040293
9729	2950	2083	1694	2057	2066	62296,9055175781	8,93069306930693	0,346534653465347	-3,50495049504951	-0,0125588697017268	0,0251177394034537
9889	2986	2092	1687	2054	2044	62301,7883300781	9,28712871287129	0,435643564356436	-3,57425742574257	-0,0251177394034537	-0,0669806384092098
10049	2984	2071	1710	2051	2034	62306,6711425781	9,26732673267327	0,227722772277228	-3,34653465346535	-0,0376766091051805	-0,108843537414966
10209	2986	2103	1684	2056	2051	62311,5539550781	9,28712871287129	0,544554455445545	-3,6039603960396	-0,0167451596023025	-0,0376766091051805
10369	2986	2074	1708	2059	2070	62316,4367675781	9,28712871287129	0,257425742574257	-3,36633663366337	-0,00418628990057562	0,0418628990057562
10529	2987	2100	1708	2053	2055	62321,3195800781	9,2970297029703	0,514851485148515	-3,36633663366337	-0,0293040293040293	-0,0209314495028781
10689	2972	2085	1701	2048	2036	62326,2023925781	9,14851485148515	0,366336633663366	-3,43564356435644	-0,0502354788069074	-0,100470957613815
10849	2996	2091	1685	2053	2050	62331,0852050781	9,38613861386139	0,425742574257426	-3,59405940594059	-0,0293040293040293	-0,0418628990057562
11009	2985	2068	1663	2052	2068	62335,9680175781	9,27722772277228	0,198019801980198	-3,81188118811881	-0,0334903192046049	0,0334903192046049
11169	2985	2092	1662	2052	2056	62340,8508300781	9,27722772277228	0,435643564356436	-3,82178217821782	-0,0334903192046049	-0,0167451596023025
11329	2979	2084	1723	2049	2036	62345,7336425781	9,21782178217822	0,356435643564356	-3,21782178217822	-0,0460491889063318	-0,100470957613815
11489	2976	2088	1690	2056	2050	62350,6164550781	9,18811881188119	0,396039603960396	-3,54455445544554	-0,0167451596023025	-0,0418628990057562
11649	2980	2089	1703	2059	2069	62355,4992675781	9,22772277227723	0,405940594059406	-3,41584158415842	-0,00418628990057562	0,0376766091051805
11809	2971	2075	1700	2052	2061	62360,3820800781	9,13861386138614	0,267326732673267	-3,44554455445545	-0,0334903192046049	0,00418628990057562
11969	2978	2084	1690	2046	2034	62365,2648925781	9,20792079207921	0,356435643564356	-3,54455445544554	-0,0586080586080586	-0,108843537414966
12129	3000	2099	1689	2048	2046	62370,1477050781	9,42574257425743	0,504950495049505	-3,55445544554455	-0,0502354788069074	-0,0586080586080586
12289	2974	2082	1699	2054	2069	62375,0305175781	9,16831683168317	0,336633663366337	-3,45544554455446	-0,0251177394034537	0,0376766091051805
12449	2973	2082	1701	2050	2062	62379,9133300781	9,15841584158416	0,336633663366337	-3,43564356435644	-0,0418628990057562	0,00837257980115123
12609	3003	2080	1703	2047	2033	62384,7961425781	9,45544554455446	0,316831683168317	-3,41584158415842	-0,054421768707483	-0,113029827315542
12769	2983	2083	1676	2050	2043	62389,6789550781	9,25742574257426	0,346534653465347	-3,68316831683168	-0,0418628990057562	-0,0711669283097855
12929	2964	2103	1689	2053	2065	62394,5617675781	9,06930693069307	0,544554455445545	-3,55445544554455	-0,0293040293040293	0,0209314495028781
13089	2985	2098	1682	2053	2059	62399,4445800781	9,27722772277228	0,495049504950495	-3,62376237623762	-0,0293040293040293	-0,00418628990057562
13249	3005	2085	1704	2048	2037	62404,3273925781	9,47524752475248	0,366336633663366	-3,40594059405941	-0,0502354788069074	-0,0962846677132392
13409	2981	2074	1689	2045	2036	62409,2102050781	9,23762376237624	0,257425742574257	-3,55445544554455	-0,0627943485086342	-0,100470957613815
13569	2981	2073	1699	2050	2059	62414,0930175781	9,23762376237624	0,247524752475248	-3,45544554455446	-0,0418628990057562	-0,00418628990057562
13729	2974	2065	1694	2054	2057	62418,9758300781	9,16831683168317	0,168316831683168	-3,50495049504951	-0,0251177394034537	-0,0125588697017268
13889	2986	2104	1704	2055	2037	62423,8586425781	9,28712871287129	0,554455445544555	-3,40594059405941	-0,0209314495028781	-0,0962846677132392
14049	3000	2076	1695	2051	2034	62428,7414550781	9,42574257425743	0,277227722772277	-3,4950495049505	-0,0376766091051805	-0,108843537414966
14209	2978	2088	1711	2056	2055	62433,6242675781	9,20792079207921	0,396039603960396	-3,33663366336634	-0,0167451596023025	-0,0209314495028781
14369	2992	2082	1663	2048	2061	62438,5070800781	9,34653465346535	0,336633663366337	-3,81188118811881	-0,0502354788069074	0,00418628990057562
14529	3008	2060	1707	2050	2039	62443,3898925781	9,5049504950495	0,118811881188119	-3,37623762376238	-0,0418628990057562	-0,0879120879120879
14689	2984	2092	1677	2040	2033	62448,2727050781	9,26732673267327	0,435643564356436	-3,67326732673267	-0,0837257980115123	-0,113029827315542
14849	2982	2091	1706	2049	2059	62453,1555175781	9,24752475247525	0,425742574257426	-3,38613861386139	-0,0460491889063318	-0,00418628990057562
15009	2975	2093	1679	2054	2067	62458,0383300781	9,17821782178218	0,445544554455446	-3,65346534653465	-0,0251177394034537	0,0293040293040293
15169	2976	2085	1708	2048	2043	62462,9211425781	9,18811881188119	0,366336633663366	-3,36633663366337	-0,0502354788069074	-0,0711669283097855
15329	3000	2071	1688	2051	2034	62467,8039550781	9,42574257425743	0,227722772277228	-3,56435643564356	-0,0376766091051805	-0,108843537414966
15489	2968	2093	1689	2058	2056	62472,6867675781	9,10891089108911	0,445544554455446	-3,55445544554455	-0,00837257980115123	-0,0167451596023025
15649	2966	2079	1688	2060	2065	62477,5695800781	9,08910891089109	0,306930693069307	-3,56435643564356	0	0,0209314495028781
15809	2991	2085	1703	2055	2046	62482,4523925781	9,33663366336634	0,366336633663366	-3,41584158415842	-0,0209314495028781	-0,0586080586080586
15969	3010	2048	1700	2051	2033	62487,3352050781	9,52475247524752	0	-3,44554455445545	-0,0376766091051805	-0,113029827315542
16129	2996	2084	1688	2053	2052	62492,2180175781	9,38613861386139	0,356435643564356	-3,56435643564356	-0,0293040293040293	-0,0334903192046049
16289	2986	2077	1688	2059	2067	62497,1008300781	9,28712871287129	0,287128712871287	-3,56435643564356	-0,00418628990057562	0,0293040293040293
16449	2994	2091	1680	2057	2048	62501,9836425781	9,36633663366337	0,425742574257426	-3,64356435643564	-0,0125588697017268	-0,0502354788069074
16609	2957	2097	1689	2055	2034	62506,8664550781	9	0,485148514851485	-3,55445544554455	-0,0209314495028781	-0,108843537414966
16769	2992	2088	1699	2061	2053	62511,7492675781	9,34653465346535	0,396039603960396	-3,45544554455446	0,00418628990057562	-0,0293040293040293
16929	2978	2077	1695	2062	2067	62516,6320800781	9,20792079207921	0,287128712871287	-3,4950495049505	0,00837257980115123	0,0293040293040293
17089	2993	2077	1704	2058	2052	62521,5148925781	9,35643564356436	0,287128712871287	-3,40594059405941	-0,00837257980115123	-0,0334903192046049
17249	2952	2072	1702	2053	2036	62526,3977050781	8,95049504950495	0,237623762376238	-3,42574257425743	-0,0293040293040293	-0,100470957613815
17409	2996	2090	1675	2058	2052	62531,2805175781	9,38613861386139	0,415841584158416	-3,69306930693069	-0,00837257980115123	-0,0334903192046049
17569	2984	2081	1678	2062	2072	62536,1633300781	9,26732673267327	0,326732673267327	-3,66336633663366	0,00837257980115123	0,0502354788069074
17729	2956	2082	1700	2057	2057	62541,0461425781	8,99009900990099	0,336633663366337	-3,44554455445545	-0,0125588697017268	-0,0125588697017268
17889	3005	2093	1666	2054	2037	62545,9289550781	9,47524752475248	0,445544554455446	-3,78217821782178	-0,0251177394034537	-0,0962846677132392
18049	3003	2053	1704	2055	2050	62550,8117675781	9,45544554455446	0,0495049504950495	-3,40594059405941	-0,0209314495028781	-0,0418628990057562
18209	2989	2084	1692	2061	2067	62555,6945800781	9,31683168316832	0,356435643564356	-3,52475247524752	0,00418628990057562	0,0293040293040293
18369	2979	2086	1703	2057	2058	62560,5773925781	9,21782178217822	0,376237623762376	-3,41584158415842	-0,0125588697017268	-0,00837257980115123
18529	2985	2094	1704	2049	2035	62565,4602050781	9,27722772277228	0,455445544554455	-3,40594059405941	-0,0460491889063318	-0,10465724751439
18689	2976	2092	1687	2043	2044	62570,3430175781	9,18811881188119	0,435643564356436	-3,57425742574257	-0,0711669283097855	-0,0669806384092098
18849	2992	2080	1678	2048	2067	62575,2258300781	9,34653465346535	0,316831683168317	-3,66336633663366	-0,0502354788069074	0,0293040293040293
19009	2981	2082	1700	2051	2060	62580,1086425781	9,23762376237624	0,336633663366337	-3,44554455445545	-0,0376766091051805	0
19169	2983	2096	1688	2042	2036	62584,9914550781	9,25742574257426	0,475247524752475	-3,56435643564356	-0,0753532182103611	-0,100470957613815
19329	2963	2078	1713	2048	2042	62589,8742675781	9,05940594059406	0,297029702970297	-3,31683168316832	-0,0502354788069074	-0,0753532182103611
19489	2977	2083	1712	2054	2067	62594,7570800781	9,1980198019802	0,346534653465347	-3,32673267326733	-0,0251177394034537	0,0293040293040293
19649	2991	2086	1697	2053	2058	62599,6398925781	9,33663366336634	0,376237623762376	-3,47524752475248	-0,0293040293040293	-0,00837257980115123
19809	3000	2079	1681	2048	2036	62604,5227050781	9,42574257425743	0,306930693069307	-3,63366336633663	-0,0502354788069074	-0,100470957613815
19969	2999	2062	1698	2050	2041	62609,4055175781	9,41584158415842	0,138613861386139	-3,46534653465347	-0,0418628990057562	-0,0795395081109367
20129	2982	2096	1711	2050	2063	62614,2883300781	9,24752475247525	0,475247524752475	-3,33663366336634	-0,0418628990057562	0,0125588697017268
20289	2991	2081	1693	2050	2060	62619,1711425781	9,33663366336634	0,326732673267327	-3,51485148514851	-0,0418628990057562	0
20449	2981	2074	1707	2046	2035	62624,0539550781	9,23762376237624	0,257425742574257	-3,37623762376238	-0,0586080586080586	-0,10465724751439
20609	2993	2099	1692	2049	2035	62628,9367675781	9,35643564356436	0,504950495049505	-3,52475247524752	-0,0460491889063318	-0,10465724751439
20769	2983	2090	1671	2058	2059	62633,8195800781	9,25742574257426	0,415841584158416	-3,73267326732673	-0,00837257980115123	-0,00418628990057562
20929	2978	2075	1702	2055	2067	62638,7023925781	9,20792079207921	0,267326732673267	-3,42574257425743	-0,0209314495028781	0,0293040293040293
21089	2966	2075	1680	2054	2042	62643,5852050781	9,08910891089109	0,267326732673267	-3,64356435643564	-0,0251177394034537	-0,0753532182103611
21249	2995	2103	1697	2051	2036	62648,4680175781	9,37623762376238	0,544554455445545	-3,47524752475248	-0,0376766091051805	-0,100470957613815
21409	2980	2092	1659	2049	2061	62653,3508300781	9,22772277227723	0,435643564356436	-3,85148514851485	-0,0460491889063318	0,00418628990057562
21569	2958	2091	1708	2048	2064	62658,2336425781	9,00990099009901	0,425742574257426	-3,36633663366337	-0,0502354788069074	0,0167451596023025
21729	2978	2090	1695	2051	2042	62663,1164550781	9,20792079207921	0,415841584158416	-3,4950495049505	-0,0376766091051805	-0,0753532182103611
21889	2984	2086	1687	2047	2036	62667,9992675781	9,26732673267327	0,376237623762376	-3,57425742574257	-0,054421768707483	-0,100470957613815
22049	2991	2075	1689	2047	2060	62672,8820800781	9,33663366336634	0,267326732673267	-3,55445544554455	-0,054421768707483	0
22209	2987	2076	1705	2052	2067	62677,7648925781	9,2970297029703	0,277227722772277	-3,3960396039604	-0,0334903192046049	0,0293040293040293
22369	2972	2079	1710	2048	2045	62682,6477050781	9,14851485148515	0,306930693069307	-3,34653465346535	-0,0502354788069074	-0,0627943485086342
22529	2972	2077	1695	2048	2035	62687,5305175781	9,14851485148515	0,287128712871287	-3,4950495049505	-0,0502354788069074	-0,10465724751439
22689	2998	2101	1708	2053	2055	62692,4133300781	9,40594059405941	0,524752475247525	-3,36633663366337	-0,0293040293040293	-0,0209314495028781
22849	2966	2089	1681	2059	2070	62697,2961425781	9,08910891089109	0,405940594059406	-3,63366336633663	-0,00418628990057562	0,0418628990057562
23009	2982	2085	1708	2055	2050	62702,1789550781	9,24752475247525	0,366336633663366	-3,36633663366337	-0,0209314495028781	-0,0418628990057562
23169	2934	2102	1733	2052	2035	62707,0617675781	8,77227722772277	0,534653465346535	-3,11881188118812	-0,0334903192046049	-0,10465724751439
23329	2995	2087	1688	2057	2052	62711,9445800781	9,37623762376238	0,386138613861386	-3,56435643564356	-0,0125588697017268	-0,0334903192046049
23489	2982	2071	1689	2066	2069	62716,8273925781	9,24752475247525	0,227722772277228	-3,55445544554455	0,0251177394034537	0,0376766091051805
23649	2965	2079	1690	2057	2049	62721,7102050781	9,07920792079208	0,306930693069307	-3,54455445544554	-0,0125588697017268	-0,0460491889063318
23809	2976	2086	1678	2045	2027	62726,5930175781	9,18811881188119	0,376237623762376	-3,66336633663366	-0,0627943485086342	-0,138147566718995
23969	2993	2089	1707	2042	2040	62731,4758300781	9,35643564356436	0,405940594059406	-3,37623762376238	-0,0753532182103611	-0,0837257980115123
24129	2989	2098	1698	2052	2065	62736,3586425781	9,31683168316832	0,495049504950495	-3,46534653465347	-0,0334903192046049	0,0209314495028781
24289	2998	2086	1711	2053	2052	62741,2414550781	9,40594059405941	0,376237623762376	-3,33663366336634	-0,0293040293040293	-0,0334903192046049
24449	2981	2098	1692	2050	2029	62746,1242675781	9,23762376237624	0,495049504950495	-3,52475247524752	-0,0418628990057562	-0,129774986917844
24609	2982	2114	1695	2058	2044	62751,0070800781	9,24752475247525	0,653465346534653	-3,4950495049505	-0,00837257980115123	-0,0669806384092098
24769	2990	2085	1714	2065	2066	62755,8898925781	9,32673267326733	0,366336633663366	-3,30693069306931	0,0209314495028781	0,0251177394034537
24929	2959	2094	1699	2058	2053	62760,7727050781	9,01980198019802	0,455445544554455	-3,45544554455446	-0,00837257980115123	-0,0293040293040293
25089	2990	2091	1684	2058	2034	62765,6555175781	9,32673267326733	0,425742574257426	-3,6039603960396	-0,00837257980115123	-0,108843537414966
25249	2976	2088	1699	2054	2042	62770,5383300781	9,18811881188119	0,396039603960396	-3,45544554455446	-0,0251177394034537	-0,0753532182103611
25409	3011	2069	1691	2056	2061	62775,4211425781	9,53465346534654	0,207920792079208	-3,53465346534653	-0,0167451596023025	0,00418628990057562
25569	2972	2077	1659	2049	2052	62780,3039550781	9,14851485148515	0,287128712871287	-3,85148514851485	-0,0460491889063318	-0,0334903192046049
25729	2985	2101	1704	2055	2030	62785,1867675781	9,27722772277228	0,524752475247525	-3,40594059405941	-0,0209314495028781	-0,125588697017268
25889	2992	2099	1693	2053	2036	62790,0695800781	9,34653465346535	0,504950495049505	-3,51485148514851	-0,0293040293040293	-0,100470957613815
26049	3011	2082	1701	2056	2060	62794,9523925781	9,53465346534654	0,336633663366337	-3,43564356435644	-0,0167451596023025	0
26209	2964	2116	1704	2056	2058	62799,8352050781	9,06930693069307	0,673267326732673	-3,40594059405941	-0,0167451596023025	-0,00837257980115123
26369	2986	2106	1701	2050	2038	62804,7180175781	9,28712871287129	0,574257425742574	-3,43564356435644	-0,0418628990057562	-0,0920983778126635
26529	2973	2081	1665	2054	2038	62809,6008300781	9,15841584158416	0,326732673267327	-3,79207920792079	-0,0251177394034537	-0,0920983778126635
26689	2969	2099	1691	2050	2067	62814,4836425781	9,11881188118812	0,504950495049505	-3,53465346534653	-0,0418628990057562	0,0293040293040293
26849	2962	2074	1701	2055	2063	62819,3664550781	9,04950495049505	0,257425742574257	-3,43564356435644	-0,0209314495028781	0,0125588697017268
27009	2997	2062	1695	2047	2037	62824,2492675781	9,3960396039604	0,138613861386139	-3,4950495049505	-0,054421768707483	-0,0962846677132392
27169	2981	2082	1697	2049	2037	62829,1320800781	9,23762376237624	0,336633663366337	-3,47524752475248	-0,0460491889063318	-0,0962846677132392
27329	2980	2079	1710	2058	2060	62834,0148925781	9,22772277227723	0,306930693069307	-3,34653465346535	-0,00837257980115123	0
27489	2980	2099	1701	2058	2064	62838,8977050781	9,22772277227723	0,504950495049505	-3,43564356435644	-0,00837257980115123	0,0167451596023025
27649	2980	2071	1688	2053	2036	62843,7805175781	9,22772277227723	0,227722772277228	-3,56435643564356	-0,0293040293040293	-0,100470957613815
27809	2980	2078	1706	2055	2034	62848,6633300781	9,22772277227723	0,297029702970297	-3,38613861386139	-0,0209314495028781	-0,108843537414966
27969	2972	2087	1679	2056	2058	62853,5461425781	9,14851485148515	0,386138613861386	-3,65346534653465	-0,0167451596023025	-0,00837257980115123
28129	2972	2076	1700	2052	2064	62858,4289550781	9,14851485148515	0,277227722772277	-3,44554455445545	-0,0334903192046049	0,0167451596023025
28289	2983	2086	1689	2055	2041	62863,3117675781	9,25742574257426	0,376237623762376	-3,55445544554455	-0,0209314495028781	-0,0795395081109367
28449	2968	2107	1720	2048	2036	62868,1945800781	9,10891089108911	0,584158415841584	-3,24752475247525	-0,0502354788069074	-0,100470957613815
28609	2994	2069	1699	2051	2056	62873,0773925781	9,36633663366337	0,207920792079208	-3,45544554455446	-0,0376766091051805	-0,0167451596023025
28769	2977	2094	1711	2054	2065	62877,9602050781	9,1980198019802	0,455445544554455	-3,33663366336634	-0,0251177394034537	0,0209314495028781
28929	2984	2082	1704	2052	2046	62882,8430175781	9,26732673267327	0,336633663366337	-3,40594059405941	-0,0334903192046049	-0,0586080586080586
29089	2966	2079	1717	2052	2036	62887,7258300781	9,08910891089109	0,306930693069307	-3,27722772277228	-0,0334903192046049	-0,100470957613815
29249	2988	2086	1676	2056	2056	62892,6086425781	9,30693069306931	0,376237623762376	-3,68316831683168	-0,0167451596023025	-0,0167451596023025
29409	2980	2055	1694	2056	2066	62897,4914550781	9,22772277227723	0,0693069306930693	-3,50495049504951	-0,0167451596023025	0,0251177394034537
29569	3000	2074	1685	2056	2051	62902,3742675781	9,42574257425743	0,257425742574257	-3,59405940594059	-0,0167451596023025	-0,0376766091051805
29729	2989	2076	1693	2050	2036	62907,2570800781	9,31683168316832	0,277227722772277	-3,51485148514851	-0,0418628990057562	-0,100470957613815
29889	2994	2091	1681	2054	2054	62912,1398925781	9,36633663366337	0,425742574257426	-3,63366336633663	-0,0251177394034537	-0,0251177394034537
30049	2975	2083	1683	2052	2072	62917,0227050781	9,17821782178218	0,346534653465347	-3,61386138613861	-0,0334903192046049	0,0502354788069074
30209	2992	2085	1722	2052	2051	62921,9055175781	9,34653465346535	0,366336633663366	-3,22772277227723	-0,0334903192046049	-0,0376766091051805
30369	2979	2093	1711	2052	2037	62926,7883300781	9,21782178217822	0,445544554455446	-3,33663366336634	-0,0334903192046049	-0,0962846677132392
30529	2979	2087	1693	2053	2047	62931,6711425781	9,21782178217822	0,386138613861386	-3,51485148514851	-0,0293040293040293	-0,054421768707483
30689	2989	2092	1694	2048	2060	62936,5539550781	9,31683168316832	0,435643564356436	-3,50495049504951	-0,0502354788069074	0
30849	2965	2095	1691	2044	2048	62941,4367675781	9,07920792079208	0,465346534653465	-3,53465346534653	-0,0669806384092098	-0,0502354788069074
31009	2994	2094	1684	2048	2034	62946,3195800781	9,36633663366337	0,455445544554455	-3,6039603960396	-0,0502354788069074	-0,108843537414966
31169	2975	2091	1697	2047	2043	62951,2023925781	9,17821782178218	0,425742574257426	-3,47524752475248	-0,054421768707483	-0,0711669283097855
31329	2973	2071	1677	2049	2060	62956,0852050781	9,15841584158416	0,227722772277228	-3,67326732673267	-0,0460491889063318	0
31489	2997	2090	1702	2050	2051	62960,9680175781	9,3960396039604	0,415841584158416	-3,42574257425743	-0,0418628990057562	-0,0376766091051805
31649	2976	2072	1689	2055	2036	62965,8508300781	9,18811881188119	0,237623762376238	-3,55445544554455	-0,0209314495028781	-0,100470957613815
31809	2987	2103	1684	2053	2044	62970,7336425781	9,2970297029703	0,544554455445545	-3,6039603960396	-0,0293040293040293	-0,0669806384092098
31969	2986	2117	1659	2051	2063	62975,6164550781	9,28712871287129	0,683168316831683	-3,85148514851485	-0,0376766091051805	0,0125588697017268
32129	2960	2102	1705	2043	2054	62980,4992675781	9,02970297029703	0,534653465346535	-3,3960396039604	-0,0711669283097855	-0,0251177394034537
32289	2978	2083	1684	2048	2037	62985,3820800781	9,20792079207921	0,346534653465347	-3,6039603960396	-0,0502354788069074	-0,0962846677132392
32449	2988	2103	1718	2054	2043	62990,2648925781	9,30693069306931	0,544554455445545	-3,26732673267327	-0,0251177394034537	-0,0711669283097855
32609	2993	2070	1695	2050	2060	62995,1477050781	9,35643564356436	0,217821782178218	-3,4950495049505	-0,0418628990057562	0
32769	2976	2086	1693	2052	2056	63000,0305175781	9,18811881188119	0,376237623762376	-3,51485148514851	-0,0334903192046049	-0,0167451596023025
32929	2992	2097	1688	2055	2039	63004,9133300781	9,34653465346535	0,485148514851485	-3,56435643564356	-0,0209314495028781	-0,0879120879120879
33089	2960	2067	1688	2055	2043	63009,7961425781	9,02970297029703	0,188118811881188	-3,56435643564356	-0,0209314495028781	-0,0711669283097855
33249	3006	2075	1700	2051	2061	63014,6789550781	9,48514851485148	0,267326732673267	-3,44554455445545	-0,0376766091051805	0,00418628990057562
33409	2972	2070	1678	2047	2056	63019,5617675781	9,14851485148515	0,217821782178218	-3,66336633663366	-0,054421768707483	-0,0167451596023025
33569	2995	2079	1678	2050	2043	63024,4445800781	9,37623762376238	0,306930693069307	-3,66336633663366	-0,0418628990057562	-0,0711669283097855
33729	2989	2086	1691	2061	2044	63029,3273925781	9,31683168316832	0,376237623762376	-3,53465346534653	0,00418628990057562	-0,0669806384092098
33889	2971	2092	1689	2050	2059	63034,2102050781	9,13861386138614	0,435643564356436	-3,55445544554455	-0,0418628990057562	-0,00418628990057562
34049	2976	2086	1702	2050	2061	63039,0930175781	9,18811881188119	0,376237623762376	-3,42574257425743	-0,0418628990057562	0,00418628990057562
34209	2996	2078	1684	2052	2043	63043,9758300781	9,38613861386139	0,297029702970297	-3,6039603960396	-0,0334903192046049	-0,0711669283097855
34369	2971	2094	1704	2057	2044	63048,8586425781	9,13861386138614	0,455445544554455	-3,40594059405941	-0,0125588697017268	-0,0669806384092098
34529	2989	2101	1675	2049	2058	63053,7414550781	9,31683168316832	0,524752475247525	-3,69306930693069	-0,0460491889063318	-0,00837257980115123
34689	2986	2087	1724	2047	2059	63058,6242675781	9,28712871287129	0,386138613861386	-3,20792079207921	-0,054421768707483	-0,00418628990057562
34849	2978	2084	1705	2052	2046	63063,5070800781	9,20792079207921	0,356435643564356	-3,3960396039604	-0,0334903192046049	-0,0586080586080586
35009	3003	2087	1697	2054	2040	63068,3898925781	9,45544554455446	0,386138613861386	-3,47524752475248	-0,0251177394034537	-0,0837257980115123
35169	2977	2071	1680	2053	2053	63073,2727050781	9,1980198019802	0,227722772277228	-3,64356435643564	-0,0293040293040293	-0,0293040293040293
35329	2984	2075	1688	2057	2061	63078,1555175781	9,26732673267327	0,267326732673267	-3,56435643564356	-0,0125588697017268	0,00418628990057562
35489	2970	2087	1703	2057	2050	63083,0383300781	9,12871287128713	0,386138613861386	-3,41584158415842	-0,0125588697017268	-0,0418628990057562
35649	2984	2077	1684	2061	2045	63087,9211425781	9,26732673267327	0,287128712871287	-3,6039603960396	0,00418628990057562	-0,0627943485086342
35809	3002	2076	1683	2055	2054	63092,8039550781	9,44554455445545	0,277227722772277	-3,61386138613861	-0,0209314495028781	-0,0251177394034537
35969	3018	2092	1687	2047	2060	63097,6867675781	9,6039603960396	0,435643564356436	-3,57425742574257	-0,054421768707483	0
36129	2986	2103	1707	2053	2049	63102,5695800781	9,28712871287129	0,544554455445545	-3,37623762376238	-0,0293040293040293	-0,0460491889063318
36289	2976	2091	1688	2064	2048	63107,4523925781	9,18811881188119	0,425742574257426	-3,56435643564356	0,0167451596023025	-0,0502354788069074
36449	2956	2085	1675	2054	2048	63112,3352050781	8,99009900990099	0,366336633663366	-3,69306930693069	-0,0251177394034537	-0,0502354788069074
36609	2990	2094	1725	2047	2052	63117,2180175781	9,32673267326733	0,455445544554455	-3,1980198019802	-0,054421768707483	-0,0334903192046049
36769	2966	2075	1700	2053	2047	63122,1008300781	9,08910891089109	0,267326732673267	-3,44554455445545	-0,0293040293040293	-0,054421768707483
36929	3008	2084	1675	2062	2044	63126,9836425781	9,5049504950495	0,356435643564356	-3,69306930693069	0,00837257980115123	-0,0669806384092098
37089	2982	2085	1699	2058	2051	63131,8664550781	9,24752475247525	0,366336633663366	-3,45544554455446	-0,00837257980115123	-0,0376766091051805
37249	2973	2102	1711	2042	2052	63136,7492675781	9,15841584158416	0,534653465346535	-3,33663366336634	-0,0753532182103611	-0,0334903192046049
37409	2973	2079	1703	2048	2047	63141,6320800781	9,15841584158416	0,306930693069307	-3,41584158415842	-0,0502354788069074	-0,054421768707483
37569	2982	2108	1695	2057	2047	63146,5148925781	9,24752475247525	0,594059405940594	-3,4950495049505	-0,0125588697017268	-0,054421768707483
37729	2964	2067	1694	2051	2051	63151,3977050781	9,06930693069307	0,188118811881188	-3,50495049504951	-0,0376766091051805	-0,0376766091051805
37889	2991	2073	1710	2042	2051	63156,2805175781	9,33663366336634	0,247524752475248	-3,34653465346535	-0,0753532182103611	-0,0376766091051805
38049	2977	2084	1694	2050	2046	63161,1633300781	9,1980198019802	0,356435643564356	-3,50495049504951	-0,0418628990057562	-0,0586080586080586
38209	2969	2092	1671	2061	2045	63166,0461425781	9,11881188118812	0,435643564356436	-3,73267326732673	0,00418628990057562	-0,0627943485086342
38369	2993	2088	1724	2058	2051	63170,9289550781	9,35643564356436	0,396039603960396	-3,20792079207921	-0,00837257980115123	-0,0376766091051805
38529	2983	2080	1705	2046	2051	63175,8117675781	9,25742574257426	0,316831683168317	-3,3960396039604	-0,0586080586080586	-0,0376766091051805
38689	3008	2080	1679	2047	2047	63180,6945800781	9,5049504950495	0,316831683168317	-3,65346534653465	-0,054421768707483	-0,054421768707483
38849	2978	2062	1683	2053	2046	63185,5773925781	9,20792079207921	0,138613861386139	-3,61386138613861	-0,0293040293040293	-0,0586080586080586
39009	3002	2087	1673	2051	2049	63190,4602050781	9,44554455445545	0,386138613861386	-3,71287128712871	-0,0376766091051805	-0,0460491889063318
39169	2990	2087	1717	2047	2050	63195,3430175781	9,32673267326733	0,386138613861386	-3,27722772277228	-0,054421768707483	-0,0418628990057562
39329	2974	2089	1701	2049	2051	63200,2258300781	9,16831683168317	0,405940594059406	-3,43564356435644	-0,0460491889063318	-0,0376766091051805
39489	3002	2074	1687	2059	2046	63205,1086425781	9,44554455445545	0,257425742574257	-3,57425742574257	-0,00418628990057562	-0,0586080586080586
39649	2988	2097	1691	2059	2048	63209,9914550781	9,30693069306931	0,485148514851485	-3,53465346534653	-0,00418628990057562	-0,0502354788069074
39809	2978	2096	1695	2045	2050	63214,8742675781	9,20792079207921	0,475247524752475	-3,4950495049505	-0,0627943485086342	-0,0418628990057562
39969	2977	2080	1676	2041	2052	63219,7570800781	9,1980198019802	0,316831683168317	-3,68316831683168	-0,0795395081109367	-0,0334903192046049
40129	2979	2097	1683	2058	2050	63224,6398925781	9,21782178217822	0,485148514851485	-3,61386138613861	-0,00837257980115123	-0,0418628990057562
40289	2969	2080	1681	2055	2046	63229,5227050781	9,11881188118812	0,316831683168317	-3,63366336633663	-0,0209314495028781	-0,0586080586080586
40449	2977	2085	1715	2049	2058	63234,4055175781	9,1980198019802	0,366336633663366	-3,2970297029703	-0,0460491889063318	-0,00837257980115123
40609	2981	2092	1700	2047	2055	63239,2883300781	9,23762376237624	0,435643564356436	-3,44554455445545	-0,054421768707483	-0,0209314495028781
40769	2985	2079	1678	2059	2048	63244,1711425781	9,27722772277228	0,306930693069307	-3,66336633663366	-0,00418628990057562	-0,0502354788069074
40929	2972	2087	1679	2062	2050	63249,0539550781	9,14851485148515	0,386138613861386	-3,65346534653465	0,00837257980115123	-0,0418628990057562
41089	2970	2065	1710	2049	2057	63253,9367675781	9,12871287128713	0,168316831683168	-3,34653465346535	-0,0460491889063318	-0,0125588697017268
41249	2976	2075	1715	2035	2055	63258,8195800781	9,18811881188119	0,267326732673267	-3,2970297029703	-0,10465724751439	-0,0209314495028781
41409	2991	2101	1709	2054	2051	63263,7023925781	9,33663366336634	0,524752475247525	-3,35643564356436	-0,0251177394034537	-0,0376766091051805
41569	2998	2074	1698	2056	2045	63268,5852050781	9,40594059405941	0,257425742574257	-3,46534653465347	-0,0167451596023025	-0,0627943485086342
41729	2984	2067	1697	2048	2051	63273,4680175781	9,26732673267327	0,188118811881188	-3,47524752475248	-0,0502354788069074	-0,0376766091051805
41889	2977	2107	1694	2044	2052	63278,3508300781	9,1980198019802	0,584158415841584	-3,50495049504951	-0,0669806384092098	-0,0334903192046049
42049	2995	2098	1683	2050	2044	63283,2336425781	9,37623762376238	0,495049504950495	-3,61386138613861	-0,0418628990057562	-0,0669806384092098
42209	2979	2083	1697	2062	2042	63288,1164550781	9,21782178217822	0,346534653465347	-3,47524752475248	0,00837257980115123	-0,0753532182103611
42369	2999	2088	1688	2052	2053	63292,9992675781	9,41584158415842	0,396039603960396	-3,56435643564356	-0,0334903192046049	-0,0293040293040293
42529	2984	2076	1693	2043	2048	63297,8820800781	9,26732673267327	0,277227722772277	-3,51485148514851	-0,0711669283097855	-0,0502354788069074
42689	2993	2068	1696	2039	2042	63302,7648925781	9,35643564356436	0,198019801980198	-3,48514851485149	-0,0879120879120879	-0,0753532182103611
42849	2999	2109	1683	2051	2038	63307,6477050781	9,41584158415842	0,603960396039604	-3,61386138613861	-0,0376766091051805	-0,0920983778126635
43009	2970	2073	1722	2049	2051	63312,5305175781	9,12871287128713	0,247524752475248	-3,22772277227723	-0,0460491889063318	-0,0376766091051805
43169	2978	2098	1687	2038	2058	63317,4133300781	9,20792079207921	0,495049504950495	-3,57425742574257	-0,0920983778126635	-0,00837257980115123
43329	2951	2058	1699	2049	2049	63322,2961425781	8,94059405940594	0,099009900990099	-3,45544554455446	-0,0460491889063318	-0,0460491889063318
43489	3008	2085	1680	2061	2042	63327,1789550781	9,5049504950495	0,366336633663366	-3,64356435643564	0,00418628990057562	-0,0753532182103611
43649	3018	2036	1692	2052	2052	63332,0617675781	9,6039603960396	-0,118811881188119	-3,52475247524752	-0,0334903192046049	-0,0334903192046049
43809	3000	2106	1667	2041	2062	63336,9445800781	9,42574257425743	0,574257425742574	-3,77227722772277	-0,0795395081109367	0,00837257980115123
43969	2967	2074	1694	2040	2049	63341,8273925781	9,0990099009901	0,257425742574257	-3,50495049504951	-0,0837257980115123	-0,0460491889063318
44129	2974	2109	1687	2054	2035	63346,7102050781	9,16831683168317	0,603960396039604	-3,57425742574257	-0,0251177394034537	-0,10465724751439
44289	2982	2086	1689	2053	2046	63351,5930175781	9,24752475247525	0,376237623762376	-3,55445544554455	-0,0293040293040293	-0,0586080586080586
44449	2992	2073	1696	2042	2065	63356,4758300781	9,34653465346535	0,247524752475248	-3,48514851485149	-0,0753532182103611	0,0209314495028781
44609	2955	2107	1692	2047	2055	63361,3586425781	8,98019801980198	0,584158415841584	-3,52475247524752	-0,054421768707483	-0,0209314495028781
44769	2988	2077	1689	2055	2032	63366,2414550781	9,30693069306931	0,287128712871287	-3,55445544554455	-0,0209314495028781	-0,117216117216117
44929	2960	2081	1686	2052	2046	63371,1242675781	9,02970297029703	0,326732673267327	-3,58415841584158	-0,0334903192046049	-0,0586080586080586
45089	2998	2081	1675	2037	2065	63376,0070800781	9,40594059405941	0,326732673267327	-3,69306930693069	-0,0962846677132392	0,0209314495028781
45249	2976	2094	1681	2039	2053	63380,8898925781	9,18811881188119	0,455445544554455	-3,63366336633663	-0,0879120879120879	-0,0293040293040293
45409	2997	2085	1709	2048	2038	63385,7727050781	9,3960396039604	0,366336633663366	-3,35643564356436	-0,0502354788069074	-0,0920983778126635
45569	2960	2053	1703	2054	2046	63390,6555175781	9,02970297029703	0,0495049504950495	-3,41584158415842	-0,0251177394034537	-0,0586080586080586
45729	2988	2085	1699	2047	2061	63395,5383300781	9,30693069306931	0,366336633663366	-3,45544554455446	-0,054421768707483	0,00418628990057562
45889	2963	2082	1698	2047	2062	63400,4211425781	9,05940594059406	0,336633663366337	-3,46534653465347	-0,054421768707483	0,00837257980115123
46049	2968	2071	1701	2054	2037	63405,3039550781	9,10891089108911	0,227722772277228	-3,43564356435644	-0,0251177394034537	-0,0962846677132392
46209	2992	2096	1704	2056	2043	63410,1867675781	9,34653465346535	0,475247524752475	-3,40594059405941	-0,0167451596023025	-0,0711669283097855
46369	2996	2102	1690	2052	2063	63415,0695800781	9,38613861386139	0,534653465346535	-3,54455445544554	-0,0334903192046049	0,0125588697017268
46529	2972	2079	1697	2045	2063	63419,9523925781	9,14851485148515	0,306930693069307	-3,47524752475248	-0,0627943485086342	0,0125588697017268
46689	2976	2099	1683	2054	2037	63424,8352050781	9,18811881188119	0,504950495049505	-3,61386138613861	-0,0251177394034537	-0,0962846677132392
46849	2973	2071	1703	2059	2036	63429,7180175781	9,15841584158416	0,227722772277228	-3,41584158415842	-0,00418628990057562	-0,100470957613815
47009	2957	2090	1709	2049	2062	63434,6008300781	9	0,415841584158416	-3,35643564356436	-0,0460491889063318	0,00837257980115123
47169	3015	2093	1701	2048	2067	63439,4836425781	9,57425742574257	0,445544554455446	-3,43564356435644	-0,0502354788069074	0,0293040293040293
47329	2981	2092	1711	2058	2039	63444,3664550781	9,23762376237624	0,435643564356436	-3,33663366336634	-0,00837257980115123	-0,0879120879120879
47489	2977	2089	1696	2062	2041	63449,2492675781	9,1980198019802	0,405940594059406	-3,48514851485149	0,00837257980115123	-0,0795395081109367
47649	2982	2087	1672	2044	2059	63454,1320800781	9,24752475247525	0,386138613861386	-3,72277227722772	-0,0669806384092098	-0,00418628990057562
47809	2988	2105	1704	2038	2062	63459,0148925781	9,30693069306931	0,564356435643564	-3,40594059405941	-0,0920983778126635	0,00837257980115123
47969	2971	2072	1694	2048	2041	63463,8977050781	9,13861386138614	0,237623762376238	-3,50495049504951	-0,0502354788069074	-0,0795395081109367
48129	3005	2087	1694	2061	2035	63468,7805175781	9,47524752475248	0,386138613861386	-3,50495049504951	0,00418628990057562	-0,10465724751439
48289	2964	2095	1679	2051	2059	63473,6633300781	9,06930693069307	0,465346534653465	-3,65346534653465	-0,0376766091051805	-0,00418628990057562
48449	2998	2104	1693	2043	2068	63478,5461425781	9,40594059405941	0,554455445544555	-3,51485148514851	-0,0711669283097855	0,0334903192046049
48609	2974	2083	1696	2055	2044	63483,4289550781	9,16831683168317	0,346534653465347	-3,48514851485149	-0,0209314495028781	-0,0669806384092098
48769	2965	2093	1718	2060	2032	63488,3117675781	9,07920792079208	0,445544554455446	-3,26732673267327	0	-0,117216117216117
48929	2978	2077	1704	2048	2056	63493,1945800781	9,20792079207921	0,287128712871287	-3,40594059405941	-0,0502354788069074	-0,0167451596023025
49089	2988	2068	1689	2041	2065	63498,0773925781	9,30693069306931	0,198019801980198	-3,55445544554455	-0,0795395081109367	0,0209314495028781
49249	2965	2087	1706	2048	2042	63502,9602050781	9,07920792079208	0,386138613861386	-3,38613861386139	-0,0502354788069074	-0,0753532182103611
49409	2978	2083	1698	2060	2032	63507,8430175781	9,20792079207921	0,346534653465347	-3,46534653465347	0	-0,117216117216117
49569	2986	2095	1678	2051	2050	63512,7258300781	9,28712871287129	0,465346534653465	-3,66336633663366	-0,0376766091051805	-0,0418628990057562
49729	2985	2073	1692	2040	2064	63517,6086425781	9,27722772277228	0,247524752475248	-3,52475247524752	-0,0837257980115123	0,0167451596023025
49889	2972	2080	1705	2048	2044	63522,4914550781	9,14851485148515	0,316831683168317	-3,3960396039604	-0,0502354788069074	-0,0669806384092098
50049	2996	2068	1681	2055	2027	63527,3742675781	9,38613861386139	0,198019801980198	-3,63366336633663	-0,0209314495028781	-0,138147566718995
50209	2976	2107	1686	2050	2047	63532,2570800781	9,18811881188119	0,584158415841584	-3,58415841584158	-0,0418628990057562	-0,054421768707483
50369	2966	2088	1669	2039	2066	63537,1398925781	9,08910891089109	0,396039603960396	-3,75247524752475	-0,0879120879120879	0,0251177394034537
50529	2973	2087	1689	2046	2047	63542,0227050781	9,15841584158416	0,386138613861386	-3,55445544554455	-0,0586080586080586	-0,054421768707483
50689	2989	2089	1695	2059	2033	63546,9055175781	9,31683168316832	0,405940594059406	-3,4950495049505	-0,00418628990057562	-0,113029827315542
50849	2990	2085	1677	2056	2050	63551,7883300781	9,32673267326733	0,366336633663366	-3,67326732673267	-0,0167451596023025	-0,0418628990057562
51009	2965	2085	1704	2045	2076	63556,6711425781	9,07920792079208	0,366336633663366	-3,40594059405941	-0,0627943485086342	0,0669806384092098
51169	2971	2090	1673	2050	2053	63561,5539550781	9,13861386138614	0,415841584158416	-3,71287128712871	-0,0418628990057562	-0,0293040293040293
51329	2981	2073	1719	2056	2032	63566,4367675781	9,23762376237624	0,247524752475248	-3,25742574257426	-0,0167451596023025	-0,117216117216117
51489	2991	2077	1709	2057	2045	63571,3195800781	9,33663366336634	0,287128712871287	-3,35643564356436	-0,0125588697017268	-0,0627943485086342
51649	2993	2103	1700	2044	2071	63576,2023925781	9,35643564356436	0,544554455445545	-3,44554455445545	-0,0669806384092098	0,0460491889063318
51809	2989	2063	1686	2048	2056	63581,0852050781	9,31683168316832	0,148514851485149	-3,58415841584158	-0,0502354788069074	-0,0167451596023025
51969	2984	2082	1673	2063	2027	63585,9680175781	9,26732673267327	0,336633663366337	-3,71287128712871	0,0125588697017268	-0,138147566718995
52129	2998	2109	1678	2059	2038	63590,8508300781	9,40594059405941	0,603960396039604	-3,66336633663366	-0,00418628990057562	-0,0920983778126635
52289	2988	2090	1675	2048	2065	63595,7336425781	9,30693069306931	0,415841584158416	-3,69306930693069	-0,0502354788069074	0,0209314495028781
52449	2978	2071	1706	2050	2057	63600,6164550781	9,20792079207921	0,227722772277228	-3,38613861386139	-0,0418628990057562	-0,0125588697017268
52609	2981	2080	1697	2061	2032	63605,4992675781	9,23762376237624	0,316831683168317	-3,47524752475248	0,00418628990057562	-0,117216117216117
52769	2989	2092	1695	2054	2038	63610,3820800781	9,31683168316832	0,435643564356436	-3,4950495049505	-0,0251177394034537	-0,0920983778126635
52929	2973	2081	1668	2045	2064	63615,2648925781	9,15841584158416	0,326732673267327	-3,76237623762376	-0,0627943485086342	0,0167451596023025
53089	2956	2068	1692	2050	2061	63620,1477050781	8,99009900990099	0,198019801980198	-3,52475247524752	-0,0418628990057562	0,00418628990057562
53249	2972	2090	1701	2061	2034	63625,0305175781	9,14851485148515	0,415841584158416	-3,43564356435644	0,00418628990057562	-0,108843537414966
53409	2980	2077	1704	2062	2038	63629,9133300781	9,22772277227723	0,287128712871287	-3,40594059405941	0,00837257980115123	-0,0920983778126635
53569	2998	2115	1697	2052	2067	63634,7961425781	9,40594059405941	0,663366336633663	-3,47524752475248	-0,0334903192046049	0,0293040293040293
53729	2992	2092	1660	2044	2061	63639,6789550781	9,34653465346535	0,435643564356436	-3,84158415841584	-0,0669806384092098	0,00418628990057562
53889	2973	2076	1704	2051	2040	63644,5617675781	9,15841584158416	0,277227722772277	-3,40594059405941	-0,0376766091051805	-0,0837257980115123
54049	2977	2079	1674	2059	2039	63649,4445800781	9,1980198019802	0,306930693069307	-3,7029702970297	-0,00418628990057562	-0,0879120879120879
54209	2974	2098	1684	2048	2064	63654,3273925781	9,16831683168317	0,495049504950495	-3,6039603960396	-0,0502354788069074	0,0167451596023025
54369	2985	2068	1689	2040	2066	63659,2102050781	9,27722772277228	0,198019801980198	-3,55445544554455	-0,0837257980115123	0,0251177394034537
54529	3002	2097	1706	2054	2040	63664,0930175781	9,44554455445545	0,485148514851485	-3,38613861386139	-0,0251177394034537	-0,0837257980115123
54689	2972	2095	1716	2062	2035	63668,9758300781	9,14851485148515	0,465346534653465	-3,28712871287129	0,00837257980115123	-0,10465724751439
54849	2951	2094	1699	2053	2064	63673,8586425781	8,94059405940594	0,455445544554455	-3,45544554455446	-0,0293040293040293	0,0167451596023025
55009	3011	2053	1710	2047	2071	63678,7414550781	9,53465346534654	0,0495049504950495	-3,34653465346535	-0,054421768707483	0,0460491889063318
55169	2975	2056	1694	2059	2042	63683,6242675781	9,17821782178218	0,0792079207920792	-3,50495049504951	-0,00418628990057562	-0,0753532182103611
55329	3002	2083	1689	2064	2033	63688,5070800781	9,44554455445545	0,346534653465347	-3,55445544554455	0,0167451596023025	-0,113029827315542
55489	3004	2079	1704	2049	2058	63693,3898925781	9,46534653465346	0,306930693069307	-3,40594059405941	-0,0460491889063318	-0,00837257980115123
55649	2983	2089	1703	2042	2070	63698,2727050781	9,25742574257426	0,405940594059406	-3,41584158415842	-0,0753532182103611	0,0418628990057562
55809	2980	2086	1686	2057	2047	63703,1555175781	9,22772277227723	0,376237623762376	-3,58415841584158	-0,0125588697017268	-0,054421768707483
55969	3001	2099	1697	2065	2035	63708,0383300781	9,43564356435644	0,504950495049505	-3,47524752475248	0,0209314495028781	-0,10465724751439
56129	2980	2079	1706	2050	2061	63712,9211425781	9,22772277227723	0,306930693069307	-3,38613861386139	-0,0418628990057562	0,00418628990057562
56289	2978	2081	1678	2034	2071	63717,8039550781	9,20792079207921	0,326732673267327	-3,66336633663366	-0,108843537414966	0,0460491889063318
56449	2969	2096	1693	2040	2050	63722,6867675781	9,11881188118812	0,475247524752475	-3,51485148514851	-0,0837257980115123	-0,0418628990057562
56609	2947	2075	1697	2058	2036	63727,5695800781	8,9009900990099	0,267326732673267	-3,47524752475248	-0,00837257980115123	-0,100470957613815
56769	2961	2075	1698	2044	2057	63732,4523925781	9,03960396039604	0,267326732673267	-3,46534653465347	-0,0669806384092098	-0,0125588697017268
56929	2993	2099	1704	2019	2069	63737,3352050781	9,35643564356436	0,504950495049505	-3,40594059405941	-0,1716378859236	0,0376766091051805
57089	2991	2087	1702	2035	2062	63742,2180175781	9,33663366336634	0,386138613861386	-3,42574257425743	-0,10465724751439	0,00837257980115123
57249	2992	2066	1644	2061	2045	63747,1008300781	9,34653465346535	0,178217821782178	-4	0,00418628990057562	-0,0627943485086342
57409	3000	2114	1596	2044	2061	63751,9836425781	9,42574257425743	0,653465346534653	-4,47524752475248	-0,0669806384092098	0,00418628990057562
57569	3005	2089	1612	2007	2082	63756,8664550781	9,47524752475248	0,405940594059406	-4,31683168316832	-0,221873364730508	0,0920983778126635
57729	3001	2078	1643	2025	2076	63761,7492675781	9,43564356435644	0,297029702970297	-4,00990099009901	-0,146520146520147	0,0669806384092098
57889	3251	2097	1707	2055	2062	63766,6320800781	11,9108910891089	0,485148514851485	-3,37623762376238	-0,0209314495028781	0,00837257980115123
58049	2738	2009	1641	2047	2085	63771,5148925781	6,83168316831683	-0,386138613861386	-4,02970297029703	-0,054421768707483	0,10465724751439
58209	3110	2124	2082	2024	2109	63776,3977050781	10,5148514851485	0,752475247524752	0,336633663366337	-0,150706436420722	0,205128205128205
58369	3060	2077	1993	2039	2088	63781,2805175781	10,019801980198	0,287128712871287	-0,544554455445545	-0,0879120879120879	0,117216117216117
58529	2907	2061	1858	2077	2059	63786,1633300781	8,5049504950495	0,128712871287129	-1,88118811881188	0,0711669283097855	-0,00418628990057562
58689	2976	2088	1903	2069	2069	63791,0461425781	9,18811881188119	0,396039603960396	-1,43564356435644	0,0376766091051805	0,0376766091051805
58849	2983	2143	1930	2030	2095	63795,9289550781	9,25742574257426	0,940594059405941	-1,16831683168317	-0,125588697017268	0,146520146520147
59009	3090	2125	1827	2035	2083	63800,8117675781	10,3168316831683	0,762376237623762	-2,18811881188119	-0,10465724751439	0,0962846677132392
59169	3048	2161	1776	2068	2049	63805,6945800781	9,9009900990099	1,11881188118812	-2,69306930693069	0,0334903192046049	-0,0460491889063318
59329	3047	2107	1717	2071	2054	63810,5773925781	9,89108910891089	0,584158415841584	-3,27722772277228	0,0460491889063318	-0,0251177394034537
59489	3018	2070	1603	2031	2088	63815,4602050781	9,6039603960396	0,217821782178218	-4,40594059405941	-0,121402407116693	0,117216117216117
59649	2978	2045	1699	2033	2082	63820,3430175781	9,20792079207921	-0,0297029702970297	-3,45544554455446	-0,113029827315542	0,0920983778126635
59809	3116	2004	1639	2073	2054	63825,2258300781	10,5742574257426	-0,435643564356436	-4,04950495049505	0,054421768707483	-0,0251177394034537
59969	3098	2017	1689	2078	2061	63830,1086425781	10,3960396039604	-0,306930693069307	-3,55445544554455	0,0753532182103611	0,00418628990057562
60129	3048	2008	1764	2034	2094	63834,9914550781	9,9009900990099	-0,396039603960396	-2,81188118811881	-0,108843537414966	0,142333856619571
60289	2992	2013	1798	2024	2099	63839,8742675781	9,34653465346535	-0,346534653465347	-2,47524752475248	-0,150706436420722	0,163265306122449
60449	3078	2021	1804	2060	2071	63844,7570800781	10,1980198019802	-0,267326732673267	-2,41584158415842	0	0,0460491889063318
60609	3136	2015	1822	2068	2074	63849,6398925781	10,7722772277228	-0,326732673267327	-2,23762376237624	0,0334903192046049	0,0586080586080586
60769	3214	2051	1758	2029	2109	63854,5227050781	11,5445544554455	0,0297029702970297	-2,87128712871287	-0,129774986917844	0,205128205128205
60929	3263	2089	1699	2015	2119	63859,4055175781	12,029702970297	0,405940594059406	-3,45544554455446	-0,188383045525903	0,246991104133961
61089	3280	2110	1700	2048	2090	63864,2883300781	12,1980198019802	0,613861386138614	-3,44554455445545	-0,0502354788069074	0,125588697017268
61249	3156	2080	1778	2045	2077	63869,1711425781	10,970297029703	0,316831683168317	-2,67326732673267	-0,0627943485086342	0,0711669283097855
61409	3079	2037	1748	1988	2086	63874,0539550781	10,2079207920792	-0,108910891089109	-2,97029702970297	-0,301412872841444	0,108843537414966
61569	3060	2027	1696	1960	2074	63878,9367675781	10,019801980198	-0,207920792079208	-3,48514851485149	-0,418628990057561	0,0586080586080586
61729	3037	1995	1692	1975	2037	63883,8195800781	9,79207920792079	-0,524752475247525	-3,52475247524752	-0,355834641548927	-0,0962846677132392
61889	3050	1996	1681	1982	2012	63888,7023925781	9,92079207920792	-0,514851485148515	-3,63366336633663	-0,326530612244898	-0,20094191522763
62049	3068	2012	1717	1935	2009	63893,5852050781	10,0990099009901	-0,356435643564356	-3,27722772277228	-0,523286237571952	-0,213500784929356
62209	3104	2037	1712	1905	2009	63898,4680175781	10,4554455445545	-0,108910891089109	-3,32673267326733	-0,64887493458922	-0,213500784929356
62369	3142	2032	1711	1926	1979	63903,3508300781	10,8316831683168	-0,158415841584158	-3,33663366336634	-0,560962846677132	-0,339089481946625
62529	3147	2067	1693	1947	1965	63908,2336425781	10,8811881188119	0,188118811881188	-3,51485148514851	-0,473050758765044	-0,397697540554683
62689	2818	1773	1720	1910	1970	63913,1164550781	7,62376237623762	-2,72277227722772	-3,24752475247525	-0,627943485086342	-0,376766091051805
62849	2994	1934	1752	1877	1975	63917,9992675781	9,36633663366337	-1,12871287128713	-2,93069306930693	-0,766091051805338	-0,355834641548927
63009	3048	2026	1744	1903	1949	63922,8820800781	9,9009900990099	-0,217821782178218	-3,00990099009901	-0,657247514390372	-0,464678178963893
63169	2976	2010	1702	1924	1931	63927,7648925781	9,18811881188119	-0,376237623762376	-3,42574257425743	-0,569335426478284	-0,540031397174254
63329	2977	1955	1637	1900	1948	63932,6477050781	9,1980198019802	-0,920792079207921	-4,06930693069307	-0,669806384092098	-0,468864468864469
63489	2978	1871	1602	1884	1965	63937,5305175781	9,20792079207921	-1,75247524752475	-4,41584158415842	-0,736787022501308	-0,397697540554683
63649	2988	1767	1563	1909	1949	63942,4133300781	9,30693069306931	-2,78217821782178	-4,8019801980198	-0,632129774986918	-0,464678178963893
63809	2950	1677	1569	1937	1931	63947,2961425781	8,93069306930693	-3,67326732673267	-4,74257425742574	-0,514913657770801	-0,540031397174254
63969	2992	1625	1525	1928	1950	63952,1789550781	9,34653465346535	-4,18811881188119	-5,17821782178218	-0,552590266875981	-0,460491889063318
64129	2990	1550	1507	1914	1978	63957,0617675781	9,32673267326733	-4,93069306930693	-5,35643564356436	-0,61119832548404	-0,3432757718472
64289	2930	1558	1541	1939	1968	63961,9445800781	8,73267326732673	-4,85148514851485	-5,01980198019802	-0,506541077969649	-0,385138670852957
64449	2887	1528	1620	1968	1950	63966,8273925781	8,30693069306931	-5,14851485148515	-4,23762376237624	-0,385138670852957	-0,460491889063318
64609	3029	1587	1765	1969	1977	63971,7102050781	9,71287128712871	-4,56435643564356	-2,8019801980198	-0,380952380952381	-0,347462061747776
64769	3059	1639	1789	1961	2020	63976,5930175781	10,009900990099	-4,04950495049505	-2,56435643564356	-0,414442700156986	-0,167451596023025
64929	3072	1667	1766	1985	2018	63981,4758300781	10,1386138613861	-3,77227722772277	-2,79207920792079	-0,313971742543171	-0,175824175824176
65089	3076	1659	1776	2014	1996	63986,3586425781	10,1782178217822	-3,85148514851485	-2,69306930693069	-0,192569335426478	-0,267922553636839
65249	2988	1634	1737	2025	2026	63991,2414550781	9,30693069306931	-4,0990099009901	-3,07920792079208	-0,146520146520147	-0,142333856619571
65409	2962	1597	1779	2028	2086	63996,1242675781	9,04950495049505	-4,46534653465347	-2,66336633663366	-0,13396127681842	0,108843537414966
33	2876	1512	1763	2037	2088	64001,0070800781	8,1980198019802	-5,30693069306931	-2,82178217821782	-0,0962846677132392	0,117216117216117
193	2843	1538	1784	2057	2054	64005,8898925781	7,87128712871287	-5,04950495049505	-2,61386138613861	-0,0125588697017268	-0,0251177394034537
353	2777	1510	1737	2059	2080	64010,7727050781	7,21782178217822	-5,32673267326733	-3,07920792079208	-0,00418628990057562	0,0837257980115123
513	2734	1517	1756	2062	2145	64015,6555175781	6,79207920792079	-5,25742574257426	-2,89108910891089	0,00837257980115123	0,355834641548927
673	2692	1756	1825	2080	2156	64020,5383300781	6,37623762376238	-2,89108910891089	-2,20792079207921	0,0837257980115123	0,401883830455259
833	2608	2001	1898	2091	2116	64025,4211425781	5,54455445544555	-0,465346534653465	-1,48514851485149	0,129774986917844	0,234432234432234
993	2592	1816	1856	2099	2126	64030,3039550781	5,38613861386139	-2,2970297029703	-1,9009900990099	0,163265306122449	0,276295133437991
1153	2560	1563	1795	2094	2180	64035,1867675781	5,06930693069307	-4,8019801980198	-2,50495049504951	0,142333856619571	0,502354788069074
1313	2486	1425	1870	2091	2180	64040,0695800781	4,33663366336634	-6,16831683168317	-1,76237623762376	0,129774986917844	0,502354788069074
1473	2428	1222	1801	2097	2124	64044,9523925781	3,76237623762376	-8,17821782178218	-2,44554455445545	0,154892726321298	0,267922553636839
1633	2409	1218	1833	2096	2118	64049,8352050781	3,57425742574257	-8,21782178217822	-2,12871287128713	0,150706436420722	0,242804814233386
1793	2421	1230	1806	2093	2165	64054,7180175781	3,69306930693069	-8,0990099009901	-2,3960396039604	0,138147566718995	0,43956043956044
1953	2421	1132	1733	2088	2173	64059,6008300781	3,69306930693069	-9,06930693069307	-3,11881188118812	0,117216117216117	0,473050758765044
2113	2390	1131	1699	2095	2117	64064,4836425781	3,38613861386139	-9,07920792079208	-3,45544554455446	0,146520146520147	0,23861852433281
2273	2285	1113	1822	2104	2111	64069,3664550781	2,34653465346535	-9,25742574257426	-2,23762376237624	0,184196755625327	0,213500784929356
2433	2199	1103	1846	2102	2162	64074,2492675781	1,4950495049505	-9,35643564356436	-2	0,175824175824176	0,427001569858713
2593	2170	1104	1785	2105	2183	64079,1320800781	1,20792079207921	-9,34653465346535	-2,6039603960396	0,188383045525903	0,514913657770801
2753	2149	1137	1751	2115	2142	64084,0148925781	1	-9,01980198019802	-2,94059405940594	0,230245944531659	0,3432757718472
2913	2118	1130	1748	2122	2132	64088,8977050781	0,693069306930693	-9,08910891089109	-2,97029702970297	0,259549973835688	0,301412872841444
3073	2106	1146	1768	2128	2188	64093,7805175781	0,574257425742574	-8,93069306930693	-2,77227722772277	0,284667713239142	0,535845107273679
3233	2085	1171	1734	2135	2223	64098,6633300781	0,366336633663366	-8,68316831683168	-3,10891089108911	0,313971742543171	0,682365253793825
3393	2056	1174	1742	2144	2185	64103,5461425781	0,0792079207920792	-8,65346534653465	-3,02970297029703	0,351648351648352	0,523286237571952
3553	2089	1165	1745	2165	2171	64108,4289550781	0,405940594059406	-8,74257425742574	-3	0,43956043956044	0,464678178963893
3713	2091	1179	1684	2185	2245	64113,3117675781	0,425742574257426	-8,6039603960396	-3,6039603960396	0,523286237571952	0,774463631606489
3873	2144	1095	1742	2211	2307	64118,1945800781	0,95049504950495	-9,43564356435644	-3,02970297029703	0,632129774986918	1,03401360544218
4033	2101	1032	1734	2227	2277	64123,0773925781	0,524752475247525	-10,0594059405941	-3,10891089108911	0,699110413396128	0,908424908424909
4193	2101	990	1753	2242	2249	64127,9602050781	0,524752475247525	-10,4752475247525	-2,92079207920792	0,761904761904762	0,791208791208791
4353	2128	1064	1776	2241	2304	64132,8430175781	0,792079207920792	-9,74257425742574	-2,69306930693069	0,757718472004186	1,02145473574045
4513	2054	1161	1782	2274	2367	64137,7258300781	0,0594059405940594	-8,78217821782178	-2,63366336633663	0,895866038723182	1,28519099947671
4673	2074	1288	1861	2271	2324	64142,6086425781	0,257425742574257	-7,52475247524753	-1,85148514851485	0,883307169021455	1,10518053375196
4833	1975	1293	1875	2263	2264	64147,4914550781	-0,722772277227723	-7,47524752475248	-1,71287128712871	0,84981684981685	0,854003139717425
4993	1844	1213	1870	2264	2299	64152,3742675781	-2,01980198019802	-8,26732673267327	-1,76237623762376	0,854003139717425	1,00052328623757
5153	1845	1217	1862	2263	2346	64157,2570800781	-2,00990099009901	-8,22772277227723	-1,84158415841584	0,84981684981685	1,19727891156463
5313	1794	1188	1868	2248	2292	64162,1398925781	-2,51485148514851	-8,51485148514852	-1,78217821782178	0,787022501308216	0,971219256933543
5473	1713	1263	1879	2226	2219	64167,0227050781	-3,31683168316832	-7,77227722772277	-1,67326732673267	0,694924123495552	0,665620094191523
5633	1660	1263	1918	2218	2239	64171,9055175781	-3,84158415841584	-7,77227722772277	-1,28712871287129	0,661433804290947	0,749345892203035
5793	1585	1290	1917	2220	2282	64176,7883300781	-4,58415841584158	-7,50495049504951	-1,2970297029703	0,669806384092098	0,929356357927787
5953	1557	1320	1874	2198	2230	64181,6711425781	-4,86138613861386	-7,20792079207921	-1,72277227722772	0,577708006279435	0,711669283097855
6113	1524	1357	1872	2165	2146	64186,5539550781	-5,18811881188119	-6,84158415841584	-1,74257425742574	0,43956043956044	0,360020931449503
6273	1504	1380	1879	2159	2154	64191,4367675781	-5,38613861386139	-6,61386138613861	-1,67326732673267	0,414442700156986	0,393511250654108
6433	1494	1432	1941	2166	2207	64196,3195800781	-5,48514851485149	-6,0990099009901	-1,05940594059406	0,443746729461015	0,615384615384615
6593	1477	1471	1937	2160	2174	64201,2023925781	-5,65346534653465	-5,71287128712871	-1,0990099009901	0,418628990057561	0,47723704866562
6753	1512	1470	1939	2136	2086	64206,0852050781	-5,30693069306931	-5,72277227722772	-1,07920792079208	0,318158032443747	0,108843537414966
6913	1534	1533	1961	2128	2088	64210,9680175781	-5,08910891089109	-5,0990099009901	-0,861386138613861	0,284667713239142	0,117216117216117
7073	1552	1635	1966	2131	2140	64215,8508300781	-4,91089108910891	-4,08910891089109	-0,811881188118812	0,297226582940869	0,334903192046049
7233	1563	1743	1890	2109	2104	64220,7336425781	-4,8019801980198	-3,01980198019802	-1,56435643564356	0,205128205128205	0,184196755625327
7393	1538	1714	1909	2067	2012	64225,6164550781	-5,04950495049505	-3,30693069306931	-1,37623762376238	0,0293040293040293	-0,20094191522763
7553	1480	1633	1904	2042	1990	64230,4992675781	-5,62376237623762	-4,10891089108911	-1,42574257425743	-0,0753532182103611	-0,293040293040293
7713	1350	1518	1927	2040	2035	64235,3820800781	-6,91089108910891	-5,24752475247525	-1,1980198019802	-0,0837257980115123	-0,10465724751439
7873	1120	1427	1995	2027	2022	64240,2648925781	-9,18811881188119	-6,14851485148515	-0,524752475247525	-0,138147566718995	-0,159079016221873
8033	1080	1403	1954	1990	1939	64245,1477050781	-9,58415841584158	-6,38613861386139	-0,930693069306931	-0,293040293040293	-0,506541077969649
8193	1080	1383	1902	1992	1932	64250,0305175781	-9,58415841584158	-6,58415841584158	-1,44554455445545	-0,284667713239142	-0,535845107273679
8353	1126	1437	1893	2010	2010	64254,9133300781	-9,12871287128713	-6,04950495049505	-1,53465346534653	-0,209314495028781	-0,209314495028781
8513	1142	1527	1905	2016	2018	64259,7961425781	-8,97029702970297	-5,15841584158416	-1,41584158415842	-0,184196755625327	-0,175824175824176
8673	1104	1519	1870	2005	1952	64264,6789550781	-9,34653465346535	-5,23762376237624	-1,76237623762376	-0,230245944531659	-0,452119309262166
8833	1199	1481	1756	2004	1938	64269,5617675781	-8,40594059405941	-5,61386138613861	-2,89108910891089	-0,234432234432234	-0,510727367870225
8993	1167	1446	1851	2036	2017	64274,4445800781	-8,72277227722772	-5,96039603960396	-1,95049504950495	-0,100470957613815	-0,180010465724751
9153	1126	1453	1898	2052	2046	64279,3273925781	-9,12871287128713	-5,89108910891089	-1,48514851485149	-0,0334903192046049	-0,0586080586080586
9313	1130	1511	1922	2042	1978	64284,2102050781	-9,08910891089109	-5,31683168316832	-1,24752475247525	-0,0753532182103611	-0,3432757718472
9473	1110	1492	2006	2023	1956	64289,0930175781	-9,28712871287129	-5,50495049504951	-0,415841584158416	-0,154892726321298	-0,435374149659864
9633	1153	1518	1983	2067	2040	64293,9758300781	-8,86138613861386	-5,24752475247525	-0,643564356435644	0,0293040293040293	-0,0837257980115123
9793	1139	1504	1974	2084	2079	64298,8586425781	-9	-5,38613861386139	-0,732673267326733	0,100470957613815	0,0795395081109367
9953	1148	1495	2026	2071	2013	64303,7414550781	-8,91089108910891	-5,47524752475248	-0,217821782178218	0,0460491889063318	-0,196755625327054
10113	1179	1515	2016	2060	1976	64308,6242675781	-8,6039603960396	-5,27722772277228	-0,316831683168317	0	-0,351648351648352
10273	1181	1561	1975	2080	2044	64313,5070800781	-8,58415841584158	-4,82178217821782	-0,722772277227723	0,0837257980115123	-0,0669806384092098
10433	1215	1595	1990	2091	2090	64318,3898925781	-8,24752475247525	-4,48514851485149	-0,574257425742574	0,129774986917844	0,125588697017268
10593	1221	1600	2011	2064	2020	64323,2727050781	-8,18811881188119	-4,43564356435644	-0,366336633663366	0,0167451596023025	-0,167451596023025
10753	1262	1621	2039	2047	1969	64328,1555175781	-7,78217821782178	-4,22772277227723	-0,0891089108910891	-0,054421768707483	-0,380952380952381
10913	1252	1642	2002	2063	2030	64333,0383300781	-7,88118811881188	-4,01980198019802	-0,455445544554455	0,0125588697017268	-0,125588697017268
11073	1259	1661	1945	2078	2083	64337,9211425781	-7,81188118811881	-3,83168316831683	-1,01980198019802	0,0753532182103611	0,0962846677132392
11233	1267	1614	1930	2056	2027	64342,8039550781	-7,73267326732673	-4,2970297029703	-1,16831683168317	-0,0167451596023025	-0,138147566718995
11393	1241	1595	1919	2026	1965	64347,6867675781	-7,99009900990099	-4,48514851485149	-1,27722772277228	-0,142333856619571	-0,397697540554683
11553	1193	1628	1920	2039	2017	64352,5695800781	-8,46534653465346	-4,15841584158416	-1,26732673267327	-0,0879120879120879	-0,180010465724751
11713	1174	1603	1863	2062	2078	64357,4523925781	-8,65346534653465	-4,40594059405941	-1,83168316831683	0,00837257980115123	0,0753532182103611
11873	23	83	3646	2033	2020	64362,3352050781	-20,049504950495	-19,4554455445545	15,8217821782178	-0,113029827315542	-0,167451596023025
12033	1086	1799	1687	2007	1943	64367,2180175781	-9,52475247524752	-2,46534653465347	-3,57425742574257	-0,221873364730508	-0,489795918367347
12193	1122	1718	1765	2018	1983	64372,1008300781	-9,16831683168317	-3,26732673267327	-2,8019801980198	-0,175824175824176	-0,322344322344322
12353	1028	1592	1775	2040	2057	64376,9836425781	-10,0990099009901	-4,51485148514852	-2,7029702970297	-0,0837257980115123	-0,0125588697017268
12513	988	1588	1752	2033	2023	64381,8664550781	-10,4950495049505	-4,55445544554455	-2,93069306930693	-0,113029827315542	-0,154892726321298
12673	982	1652	1744	2004	1948	64386,7492675781	-10,5544554455446	-3,92079207920792	-3,00990099009901	-0,234432234432234	-0,468864468864469
12833	1002	1675	1740	2014	1984	64391,6320800781	-10,3564356435644	-3,69306930693069	-3,04950495049505	-0,192569335426478	-0,318158032443747
12993	1100	1581	1712	2050	2068	64396,5148925781	-9,38613861386139	-4,62376237623762	-3,32673267326733	-0,0418628990057562	0,0334903192046049
13153	1009	1704	1949	2042	2040	64401,3977050781	-10,2871287128713	-3,40594059405941	-0,98019801980198	-0,0753532182103611	-0,0837257980115123
13313	859	1653	1969	2012	1960	64406,2805175781	-11,7722772277228	-3,91089108910891	-0,782178217821782	-0,20094191522763	-0,418628990057561
13473	1168	1819	1769	2017	1985	64411,1633300781	-8,71287128712871	-2,26732673267327	-2,76237623762376	-0,180010465724751	-0,313971742543171
13633	1039	1749	1839	2053	2067	64416,0461425781	-9,99009900990099	-2,96039603960396	-2,06930693069307	-0,0293040293040293	0,0293040293040293
13793	1094	1775	1853	2048	2051	64420,9289550781	-9,44554455445545	-2,7029702970297	-1,93069306930693	-0,0502354788069074	-0,0376766091051805
13953	1137	1762	1934	2009	1964	64425,8117675781	-9,01980198019802	-2,83168316831683	-1,12871287128713	-0,213500784929356	-0,401883830455259
14113	1076	1758	1968	2011	1974	64430,6945800781	-9,62376237623762	-2,87128712871287	-0,792079207920792	-0,205128205128205	-0,360020931449503
14273	1069	1743	1982	2042	2060	64435,5773925781	-9,69306930693069	-3,01980198019802	-0,653465346534653	-0,0753532182103611	0
14433	1047	1717	1969	2045	2056	64440,4602050781	-9,91089108910891	-3,27722772277228	-0,782178217821782	-0,0627943485086342	-0,0167451596023025
14593	1103	1732	1952	2011	1969	64445,3430175781	-9,35643564356436	-3,12871287128713	-0,95049504950495	-0,205128205128205	-0,380952380952381
14753	1082	1727	1945	2007	1963	64450,2258300781	-9,56435643564356	-3,17821782178218	-1,01980198019802	-0,221873364730508	-0,406070120355835
14913	1113	1685	1911	2038	2049	64455,1086425781	-9,25742574257426	-3,59405940594059	-1,35643564356436	-0,0920983778126635	-0,0460491889063318
15073	1111	1759	1892	2041	2058	64459,9914550781	-9,27722772277228	-2,86138613861386	-1,54455445544554	-0,0795395081109367	-0,00837257980115123
15233	1259	1589	1697	2012	1977	64464,8742675781	-7,81188118811881	-4,54455445544555	-3,47524752475248	-0,20094191522763	-0,347462061747776
15393	1116	1877	1939	1997	1955	64469,7570800781	-9,22772277227723	-1,69306930693069	-1,07920792079208	-0,263736263736264	-0,43956043956044
15553	989	1863	1876	2024	2038	64474,6398925781	-10,4851485148515	-1,83168316831683	-1,7029702970297	-0,150706436420722	-0,0920983778126635
15713	987	1769	1716	2045	2063	64479,5227050781	-10,5049504950495	-2,76237623762376	-3,28712871287129	-0,0627943485086342	0,0125588697017268
15873	1006	1753	1630	2015	1982	64484,4055175781	-10,3168316831683	-2,92079207920792	-4,13861386138614	-0,188383045525903	-0,326530612244898
16033	973	1859	1790	2000	1952	64489,2883300781	-10,6435643564356	-1,87128712871287	-2,55445544554455	-0,251177394034537	-0,452119309262166
16193	1160	1930	1632	2038	2034	64494,1711425781	-8,79207920792079	-1,16831683168317	-4,11881188118812	-0,0920983778126635	-0,108843537414966
16353	923	1809	1804	2055	2072	64499,0539550781	-11,1386138613861	-2,36633663366337	-2,41584158415842	-0,0209314495028781	0,0502354788069074
16513	961	1883	1823	2021	1995	64503,9367675781	-10,7623762376238	-1,63366336633663	-2,22772277227723	-0,163265306122449	-0,272108843537415
16673	1010	1824	1753	2009	1951	64508,8195800781	-10,2772277227723	-2,21782178217822	-2,92079207920792	-0,213500784929356	-0,456305599162742
16833	1006	1861	1816	2044	2034	64513,7023925781	-10,3168316831683	-1,85148514851485	-2,2970297029703	-0,0669806384092098	-0,108843537414966
16993	973	1860	1813	2063	2080	64518,5852050781	-10,6435643564356	-1,86138613861386	-2,32673267326733	0,0125588697017268	0,0837257980115123
17153	1001	1826	1815	2038	2009	64523,4680175781	-10,3663366336634	-2,1980198019802	-2,30693069306931	-0,0920983778126635	-0,213500784929356
17313	1041	1842	1846	2013	1950	64528,3508300781	-9,97029702970297	-2,03960396039604	-2	-0,196755625327054	-0,460491889063318
17473	1058	1855	1816	2040	2018	64533,2336425781	-9,8019801980198	-1,91089108910891	-2,2970297029703	-0,0837257980115123	-0,175824175824176
17633	1075	1880	1843	2061	2077	64538,1164550781	-9,63366336633663	-1,66336633663366	-2,02970297029703	0,00418628990057562	0,0711669283097855
17793	1054	1887	1827	2026	2010	64542,9992675781	-9,84158415841584	-1,59405940594059	-2,18811881188119	-0,142333856619571	-0,209314495028781
17953	1025	1899	1775	1999	1947	64547,8820800781	-10,1287128712871	-1,47524752475248	-2,7029702970297	-0,255363683935113	-0,473050758765044
18113	1039	1890	1801	2035	2011	64552,7648925781	-9,99009900990099	-1,56435643564356	-2,44554455445545	-0,10465724751439	-0,205128205128205
18273	1004	1927	1794	2061	2080	64557,6477050781	-10,3366336633663	-1,1980198019802	-2,51485148514851	0,00418628990057562	0,0837257980115123
18433	966	1995	1759	2046	2030	64562,5305175781	-10,7128712871287	-0,524752475247525	-2,86138613861386	-0,0586080586080586	-0,125588697017268
18593	976	1894	1703	2020	1960	64567,4133300781	-10,6138613861386	-1,52475247524752	-3,41584158415842	-0,167451596023025	-0,418628990057561
18753	991	1912	1645	2040	2013	64572,2961425781	-10,4653465346535	-1,34653465346535	-3,99009900990099	-0,0837257980115123	-0,196755625327054
18913	939	1953	1679	2061	2089	64577,1789550781	-10,980198019802	-0,940594059405941	-3,65346534653465	0,00418628990057562	0,121402407116693
19073	914	1979	1698	2055	2051	64582,0617675781	-11,2277227722772	-0,683168316831683	-3,46534653465347	-0,0209314495028781	-0,0376766091051805
19233	873	1989	1702	2031	1978	64586,9445800781	-11,6336633663366	-0,584158415841584	-3,42574257425743	-0,121402407116693	-0,3432757718472
19393	948	1955	1654	2044	2015	64591,8273925781	-10,8910891089109	-0,920792079207921	-3,9009900990099	-0,0669806384092098	-0,188383045525903
19553	939	1940	1688	2079	2096	64596,7102050781	-10,980198019802	-1,06930693069307	-3,56435643564356	0,0795395081109367	0,150706436420722
19713	935	1965	1727	2061	2064	64601,5930175781	-11,019801980198	-0,821782178217822	-3,17821782178218	0,00418628990057562	0,0167451596023025
19873	953	1980	1781	2025	1979	64606,4758300781	-10,8415841584158	-0,673267326732673	-2,64356435643564	-0,146520146520147	-0,339089481946625
20033	1011	1976	1763	2034	2006	64611,3586425781	-10,2673267326733	-0,712871287128713	-2,82178217821782	-0,108843537414966	-0,226059654631083
20193	1067	1935	1688	2070	2093	64616,2414550781	-9,71287128712871	-1,11881188118812	-3,56435643564356	0,0418628990057562	0,138147566718995
20353	1092	1935	1687	2064	2079	64621,1242675781	-9,46534653465346	-1,11881188118812	-3,57425742574257	0,0167451596023025	0,0795395081109367
20513	1048	1920	1725	2029	1986	64626,0070800781	-9,9009900990099	-1,26732673267327	-3,1980198019802	-0,129774986917844	-0,309785452642595
20673	1025	1965	1740	2034	1997	64630,8898925781	-10,1287128712871	-0,821782178217822	-3,04950495049505	-0,108843537414966	-0,263736263736264
20833	980	1938	1711	2071	2086	64635,7727050781	-10,5742574257426	-1,08910891089109	-3,33663366336634	0,0460491889063318	0,108843537414966
20993	985	1932	1681	2073	2083	64640,6555175781	-10,5247524752475	-1,14851485148515	-3,63366336633663	0,054421768707483	0,0962846677132392
21153	1003	1955	1704	2040	1999	64645,5383300781	-10,3465346534653	-0,920792079207921	-3,40594059405941	-0,0837257980115123	-0,255363683935113
21313	1008	1948	1776	2035	1993	64650,4211425781	-10,2970297029703	-0,99009900990099	-2,69306930693069	-0,10465724751439	-0,280481423338566
21473	1011	1995	1808	2070	2084	64655,3039550781	-10,2673267326733	-0,524752475247525	-2,37623762376238	0,0418628990057562	0,100470957613815
21633	1025	2014	1782	2064	2092	64660,1867675781	-10,1287128712871	-0,336633663366337	-2,63366336633663	0,0167451596023025	0,13396127681842
21793	972	2006	1758	2030	1999	64665,0695800781	-10,6534653465347	-0,415841584158416	-2,87128712871287	-0,125588697017268	-0,255363683935113
21953	1045	1995	1719	2029	1981	64669,9523925781	-9,93069306930693	-0,524752475247525	-3,25742574257426	-0,129774986917844	-0,330716902145474
22113	1006	1949	1678	2065	2071	64674,8352050781	-10,3168316831683	-0,98019801980198	-3,66336633663366	0,0209314495028781	0,0460491889063318
22273	943	1926	1709	2078	2095	64679,7180175781	-10,9405940594059	-1,20792079207921	-3,35643564356436	0,0753532182103611	0,146520146520147
22433	1044	2016	1731	2042	2003	64684,6008300781	-9,94059405940594	-0,316831683168317	-3,13861386138614	-0,0753532182103611	-0,23861852433281
22593	988	1988	1681	2033	1979	64689,4836425781	-10,4950495049505	-0,594059405940594	-3,63366336633663	-0,113029827315542	-0,339089481946625
22753	942	2001	1673	2069	2066	64694,3664550781	-10,950495049505	-0,465346534653465	-3,71287128712871	0,0376766091051805	0,0251177394034537
22913	1031	2039	1654	2069	2100	64699,2492675781	-10,0693069306931	-0,0891089108910891	-3,9009900990099	0,0376766091051805	0,167451596023025
23073	947	2018	1656	2033	2014	64704,1320800781	-10,9009900990099	-0,297029702970297	-3,88118811881188	-0,113029827315542	-0,192569335426478
23233	998	2047	1666	2023	1975	64709,0148925781	-10,3960396039604	-0,0099009900990099	-3,78217821782178	-0,154892726321298	-0,355834641548927
23393	983	1990	1641	2055	2059	64713,8977050781	-10,5445544554455	-0,574257425742574	-4,02970297029703	-0,0209314495028781	-0,00418628990057562
23553	1008	1983	1648	2080	2110	64718,7805175781	-10,2970297029703	-0,643564356435644	-3,96039603960396	0,0837257980115123	0,209314495028781
23713	1016	1998	1680	2047	2026	64723,6633300781	-10,2178217821782	-0,495049504950495	-3,64356435643564	-0,054421768707483	-0,142333856619571
23873	1013	2015	1690	2027	1968	64728,5461425781	-10,2475247524752	-0,326732673267327	-3,54455445544554	-0,138147566718995	-0,385138670852957
24033	1011	1983	1709	2059	2054	64733,4289550781	-10,2673267326733	-0,643564356435644	-3,35643564356436	-0,00418628990057562	-0,0251177394034537
24193	28	3794	1301	2035	2061	64738,3117675781	-20	17,2871287128713	-7,3960396039604	-0,10465724751439	0,00418628990057562
24353	736	1985	1469	2051	2041	64743,1945800781	-12,990099009901	-0,623762376237624	-5,73267326732673	-0,0376766091051805	-0,0795395081109367
24513	973	1950	1829	2026	1971	64748,0773925781	-10,6435643564356	-0,97029702970297	-2,16831683168317	-0,142333856619571	-0,37257980115123
24673	981	1981	1690	2057	2036	64752,9602050781	-10,5643564356436	-0,663366336633663	-3,54455445544554	-0,0125588697017268	-0,100470957613815
24833	1044	2092	1644	2086	2112	64757,8430175781	-9,94059405940594	0,435643564356436	-4	0,108843537414966	0,217687074829932
24993	987	2042	1648	2058	2049	64762,7258300781	-10,5049504950495	-0,0594059405940594	-3,96039603960396	-0,00837257980115123	-0,0460491889063318
25153	1003	2019	1684	2032	1976	64767,6086425781	-10,3465346534653	-0,287128712871287	-3,6039603960396	-0,117216117216117	-0,351648351648352
25313	960	2057	1718	2053	2026	64772,4914550781	-10,7722772277228	0,0891089108910891	-3,26732673267327	-0,0293040293040293	-0,142333856619571
25473	981	2073	1765	2079	2107	64777,3742675781	-10,5643564356436	0,247524752475248	-2,8019801980198	0,0795395081109367	0,196755625327054
25633	981	2059	1755	2062	2059	64782,2570800781	-10,5643564356436	0,108910891089109	-2,9009900990099	0,00837257980115123	-0,00418628990057562
25793	978	2075	1686	2028	1975	64787,1398925781	-10,5940594059406	0,267326732673267	-3,58415841584158	-0,13396127681842	-0,355834641548927
25953	996	2065	1668	2048	2017	64792,0227050781	-10,4158415841584	0,168316831683168	-3,76237623762376	-0,0502354788069074	-0,180010465724751
26113	973	2079	1683	2086	2107	64796,9055175781	-10,6435643564356	0,306930693069307	-3,61386138613861	0,108843537414966	0,196755625327054
26273	1004	2079	1703	2069	2070	64801,7883300781	-10,3366336633663	0,306930693069307	-3,41584158415842	0,0376766091051805	0,0418628990057562
26433	998	2096	1697	2029	1978	64806,6711425781	-10,3960396039604	0,475247524752475	-3,47524752475248	-0,129774986917844	-0,3432757718472
26593	981	2073	1674	2043	2005	64811,5539550781	-10,5643564356436	0,247524752475248	-3,7029702970297	-0,0711669283097855	-0,230245944531659
26753	994	2053	1708	2080	2101	64816,4367675781	-10,4356435643564	0,0495049504950495	-3,36633663366337	0,0837257980115123	0,1716378859236
26913	982	2074	1733	2066	2076	64821,3195800781	-10,5544554455446	0,257425742574257	-3,11881188118812	0,0251177394034537	0,0669806384092098
27073	1003	2067	1726	2032	1982	64826,2023925781	-10,3465346534653	0,188118811881188	-3,18811881188119	-0,117216117216117	-0,326530612244898
27233	964	2065	1703	2040	2001	64831,0852050781	-10,7326732673267	0,168316831683168	-3,41584158415842	-0,0837257980115123	-0,246991104133961
27393	987	2056	1708	2077	2095	64835,9680175781	-10,5049504950495	0,0792079207920792	-3,36633663366337	0,0711669283097855	0,146520146520147
27553	1003	2071	1771	2073	2084	64840,8508300781	-10,3465346534653	0,227722772277228	-2,74257425742574	0,054421768707483	0,100470957613815
27713	993	2065	1748	2038	1989	64845,7336425781	-10,4455445544554	0,168316831683168	-2,97029702970297	-0,0920983778126635	-0,297226582940869
27873	973	2076	1776	2036	1993	64850,6164550781	-10,6435643564356	0,277227722772277	-2,69306930693069	-0,100470957613815	-0,280481423338566
28033	971	2051	1715	2063	2083	64855,4992675781	-10,6633663366337	0,0297029702970297	-3,2970297029703	0,0125588697017268	0,0962846677132392
28193	979	2074	1708	2069	2087	64860,3820800781	-10,5841584158416	0,257425742574257	-3,36633663366337	0,0376766091051805	0,113029827315542
28353	971	2057	1640	2033	1992	64865,2648925781	-10,6633663366337	0,0891089108910891	-4,03960396039604	-0,113029827315542	-0,284667713239142
28513	996	2067	1669	2026	1978	64870,1477050781	-10,4158415841584	0,188118811881188	-3,75247524752475	-0,142333856619571	-0,3432757718472
28673	1021	2067	1689	2067	2072	64875,0305175781	-10,1683168316832	0,188118811881188	-3,55445544554455	0,0293040293040293	0,0502354788069074
28833	995	2082	1679	2076	2091	64879,9133300781	-10,4257425742574	0,336633663366337	-3,65346534653465	0,0669806384092098	0,129774986917844
28993	994	2052	1719	2036	1998	64884,7961425781	-10,4356435643564	0,0396039603960396	-3,25742574257426	-0,100470957613815	-0,259549973835688
29153	976	2057	1683	2026	1971	64889,6789550781	-10,6138613861386	0,0891089108910891	-3,61386138613861	-0,142333856619571	-0,37257980115123
29313	1016	2056	1679	2054	2061	64894,5617675781	-10,2178217821782	0,0792079207920792	-3,65346534653465	-0,0251177394034537	0,00418628990057562
29473	992	2066	1687	2074	2095	64899,4445800781	-10,4554455445545	0,178217821782178	-3,57425742574257	0,0586080586080586	0,146520146520147
29633	985	2078	1695	2039	2003	64904,3273925781	-10,5247524752475	0,297029702970297	-3,4950495049505	-0,0879120879120879	-0,23861852433281
29793	997	2062	1711	2021	1968	64909,2102050781	-10,4059405940594	0,138613861386139	-3,33663366336634	-0,163265306122449	-0,385138670852957
29953	970	2056	1727	2058	2052	64914,0930175781	-10,6732673267327	0,0792079207920792	-3,17821782178218	-0,00837257980115123	-0,0334903192046049
30113	976	2059	1724	2077	2095	64918,9758300781	-10,6138613861386	0,108910891089109	-3,20792079207921	0,0711669283097855	0,146520146520147
30273	1004	2063	1705	2041	2008	64923,8586425781	-10,3366336633663	0,148514851485149	-3,3960396039604	-0,0795395081109367	-0,217687074829932
30433	973	2154	1583	2020	1966	64928,7414550781	-10,6435643564356	1,04950495049505	-4,6039603960396	-0,167451596023025	-0,393511250654108
30593	995	2036	1648	2044	2039	64933,6242675781	-10,4257425742574	-0,118811881188119	-3,96039603960396	-0,0669806384092098	-0,0879120879120879
30753	965	2052	1762	2071	2099	64938,5070800781	-10,7227722772277	0,0396039603960396	-2,83168316831683	0,0460491889063318	0,163265306122449
30913	979	2096	1794	2047	2025	64943,3898925781	-10,5841584158416	0,475247524752475	-2,51485148514851	-0,054421768707483	-0,146520146520147
31073	1002	2090	1759	2016	1962	64948,2727050781	-10,3564356435644	0,415841584158416	-2,86138613861386	-0,184196755625327	-0,41025641025641
31233	1001	2013	1742	2048	2029	64953,1555175781	-10,3663366336634	-0,346534653465347	-3,02970297029703	-0,0502354788069074	-0,129774986917844
31393	987	2081	1749	2077	2101	64958,0383300781	-10,5049504950495	0,326732673267327	-2,96039603960396	0,0711669283097855	0,1716378859236
31553	992	2135	1697	2056	2035	64962,9211425781	-10,4554455445545	0,861386138613861	-3,47524752475248	-0,0167451596023025	-0,10465724751439
31713	991	2086	1721	2004	1961	64967,8039550781	-10,4653465346535	0,376237623762376	-3,23762376237624	-0,234432234432234	-0,414442700156986
31873	983	2043	1725	2029	2017	64972,6867675781	-10,5445544554455	-0,0495049504950495	-3,1980198019802	-0,129774986917844	-0,180010465724751
32033	991	2043	1707	2074	2095	64977,5695800781	-10,4653465346535	-0,0495049504950495	-3,37623762376238	0,0586080586080586	0,146520146520147
32193	998	2035	1724	2055	2043	64982,4523925781	-10,3960396039604	-0,128712871287129	-3,20792079207921	-0,0209314495028781	-0,0711669283097855
32353	972	2037	1693	2019	1955	64987,3352050781	-10,6534653465347	-0,108910891089109	-3,51485148514851	-0,1716378859236	-0,43956043956044
32513	984	2074	1723	2037	2007	64992,2180175781	-10,5346534653465	0,257425742574257	-3,21782178217822	-0,0962846677132392	-0,221873364730508
32673	972	2056	1714	2074	2094	64997,1008300781	-10,6534653465347	0,0792079207920792	-3,30693069306931	0,0586080586080586	0,142333856619571
32833	1006	2057	1723	2060	2056	65001,9836425781	-10,3168316831683	0,0891089108910891	-3,21782178217822	0	-0,0167451596023025
32993	968	2064	1740	2012	1960	65006,8664550781	-10,6930693069307	0,158415841584158	-3,04950495049505	-0,20094191522763	-0,418628990057561
33153	1008	2049	1725	2028	1992	65011,7492675781	-10,2970297029703	0,0099009900990099	-3,1980198019802	-0,13396127681842	-0,284667713239142
33313	982	2048	1708	2077	2093	65016,6320800781	-10,5544554455446	0	-3,36633663366337	0,0711669283097855	0,138147566718995
33473	998	2040	1694	2070	2067	65021,5148925781	-10,3960396039604	-0,0792079207920792	-3,50495049504951	0,0418628990057562	0,0293040293040293
33633	991	2058	1716	2024	1969	65026,3977050781	-10,4653465346535	0,099009900990099	-3,28712871287129	-0,150706436420722	-0,380952380952381
33793	980	2058	1729	2032	1982	65031,2805175781	-10,5742574257426	0,099009900990099	-3,15841584158416	-0,117216117216117	-0,326530612244898
33953	973	2068	1738	2075	2088	65036,1633300781	-10,6435643564356	0,198019801980198	-3,06930693069307	0,0627943485086342	0,117216117216117
34113	971	2050	1772	2064	2077	65041,0461425781	-10,6633663366337	0,0198019801980198	-2,73267326732673	0,0167451596023025	0,0711669283097855
34273	973	2073	1769	2019	1973	65045,9289550781	-10,6435643564356	0,247524752475248	-2,76237623762376	-0,1716378859236	-0,364207221350078
34433	998	2062	1704	2018	1973	65050,8117675781	-10,3960396039604	0,138613861386139	-3,40594059405941	-0,175824175824176	-0,364207221350078
34593	1001	2060	1735	2061	2075	65055,6945800781	-10,3663366336634	0,118811881188119	-3,0990099009901	0,00418628990057562	0,0627943485086342
34753	1000	2075	1727	2063	2074	65060,5773925781	-10,3762376237624	0,267326732673267	-3,17821782178218	0,0125588697017268	0,0586080586080586
34913	993	2075	1738	2020	1974	65065,4602050781	-10,4455445544554	0,267326732673267	-3,06930693069307	-0,167451596023025	-0,360020931449503
35073	988	2062	1753	2015	1961	65070,3430175781	-10,4950495049505	0,138613861386139	-2,92079207920792	-0,188383045525903	-0,414442700156986
35233	987	2063	1737	2060	2066	65075,2258300781	-10,5049504950495	0,148514851485149	-3,07920792079208	0	0,0251177394034537
35393	996	2055	1740	2071	2087	65080,1086425781	-10,4158415841584	0,0693069306930693	-3,04950495049505	0,0460491889063318	0,113029827315542
35553	984	2063	1715	2031	1991	65084,9914550781	-10,5346534653465	0,148514851485149	-3,2970297029703	-0,121402407116693	-0,288854003139717
35713	1010	2064	1732	2015	1963	65089,8742675781	-10,2772277227723	0,158415841584158	-3,12871287128713	-0,188383045525903	-0,406070120355835
35873	974	2051	1736	2053	2058	65094,7570800781	-10,6336633663366	0,0297029702970297	-3,08910891089109	-0,0293040293040293	-0,00837257980115123
36033	971	2059	1709	2069	2090	65099,6398925781	-10,6633663366337	0,108910891089109	-3,35643564356436	0,0376766091051805	0,125588697017268
36193	1001	2054	1713	2029	1997	65104,5227050781	-10,3663366336634	0,0594059405940594	-3,31683168316832	-0,129774986917844	-0,263736263736264
36353	992	2073	1727	2015	1962	65109,4055175781	-10,4554455445545	0,247524752475248	-3,17821782178218	-0,188383045525903	-0,41025641025641
36513	968	2069	1761	2055	2057	65114,2883300781	-10,6930693069307	0,207920792079208	-2,84158415841584	-0,0209314495028781	-0,0125588697017268
36673	999	2075	1746	2077	2105	65119,1711425781	-10,3861386138614	0,267326732673267	-2,99009900990099	0,0711669283097855	0,188383045525903
36833	1000	2045	1732	2039	2017	65124,0539550781	-10,3762376237624	-0,0297029702970297	-3,12871287128713	-0,0879120879120879	-0,180010465724751
36993	984	2043	1745	2018	1966	65128,9367675781	-10,5346534653465	-0,0495049504950495	-3	-0,175824175824176	-0,393511250654108
37153	981	2058	1738	2055	2053	65133,8195800781	-10,5643564356436	0,099009900990099	-3,06930693069307	-0,0209314495028781	-0,0293040293040293
37313	983	2075	1769	2074	2109	65138,7023925781	-10,5445544554455	0,267326732673267	-2,76237623762376	0,0586080586080586	0,205128205128205
37473	958	2079	1771	2044	2024	65143,5852050781	-10,7920792079208	0,306930693069307	-2,74257425742574	-0,0669806384092098	-0,150706436420722
37633	964	2031	1774	2022	1959	65148,4680175781	-10,7326732673267	-0,168316831683168	-2,71287128712871	-0,159079016221873	-0,422815279958137
37793	992	2071	1778	2051	2042	65153,3508300781	-10,4554455445545	0,227722772277228	-2,67326732673267	-0,0376766091051805	-0,0753532182103611
37953	991	2060	1741	2084	2115	65158,2336425781	-10,4653465346535	0,118811881188119	-3,03960396039604	0,100470957613815	0,230245944531659
38113	978	2061	1751	2056	2046	65163,1164550781	-10,5940594059406	0,128712871287129	-2,94059405940594	-0,0167451596023025	-0,0586080586080586
38273	964	2060	1753	2022	1968	65167,9992675781	-10,7326732673267	0,118811881188119	-2,92079207920792	-0,159079016221873	-0,385138670852957
38433	972	2069	1773	2027	2030	65172,8820800781	-10,6534653465347	0,207920792079208	-2,72277227722772	-0,138147566718995	-0,125588697017268
38593	999	2055	1778	2072	2110	65177,7648925781	-10,3861386138614	0,0693069306930693	-2,67326732673267	0,0502354788069074	0,209314495028781
38753	979	2084	1763	2062	2053	65182,6477050781	-10,5841584158416	0,356435643564356	-2,82178217821782	0,00837257980115123	-0,0293040293040293
38913	956	2063	1699	2029	1974	65187,5305175781	-10,8118811881188	0,148514851485149	-3,45544554455446	-0,129774986917844	-0,360020931449503
39073	1010	2058	1713	2052	2025	65192,4133300781	-10,2772277227723	0,099009900990099	-3,31683168316832	-0,0334903192046049	-0,146520146520147
39233	980	2049	1724	2092	2115	65197,2961425781	-10,5742574257426	0,0099009900990099	-3,20792079207921	0,13396127681842	0,230245944531659
39393	1015	2068	1723	2068	2075	65202,1789550781	-10,2277227722772	0,198019801980198	-3,21782178217822	0,0334903192046049	0,0627943485086342
39553	983	2056	1733	2031	1979	65207,0617675781	-10,5445544554455	0,0792079207920792	-3,11881188118812	-0,121402407116693	-0,339089481946625
39713	990	2088	1706	2046	2019	65211,9445800781	-10,4752475247525	0,396039603960396	-3,38613861386139	-0,0586080586080586	-0,1716378859236
39873	986	2058	1741	2077	2105	65216,8273925781	-10,5148514851485	0,099009900990099	-3,03960396039604	0,0711669283097855	0,188383045525903
40033	969	2063	1739	2065	2083	65221,7102050781	-10,6831683168317	0,148514851485149	-3,05940594059406	0,0209314495028781	0,0962846677132392
40193	992	2060	1725	2025	1988	65226,5930175781	-10,4554455445545	0,118811881188119	-3,1980198019802	-0,146520146520147	-0,301412872841444
40353	973	2052	1739	2039	2010	65231,4758300781	-10,6435643564356	0,0396039603960396	-3,05940594059406	-0,0879120879120879	-0,209314495028781
40513	998	2052	1742	2082	2107	65236,3586425781	-10,3960396039604	0,0396039603960396	-3,02970297029703	0,0920983778126635	0,196755625327054
40673	995	2035	1773	2071	2093	65241,2414550781	-10,4257425742574	-0,128712871287129	-2,72277227722772	0,0460491889063318	0,138147566718995
40833	973	2079	1778	2031	1995	65246,1242675781	-10,6435643564356	0,306930693069307	-2,67326732673267	-0,121402407116693	-0,272108843537415
40993	1004	2061	1738	2038	2003	65251,0070800781	-10,3366336633663	0,128712871287129	-3,06930693069307	-0,0920983778126635	-0,23861852433281
41153	1004	2036	1736	2080	2098	65255,8898925781	-10,3366336633663	-0,118811881188119	-3,08910891089109	0,0837257980115123	0,159079016221873
41313	998	2062	1724	2081	2095	65260,7727050781	-10,3960396039604	0,138613861386139	-3,20792079207921	0,0879120879120879	0,146520146520147
41473	1010	2068	1729	2041	2007	65265,6555175781	-10,2772277227723	0,198019801980198	-3,15841584158416	-0,0795395081109367	-0,221873364730508
41633	990	2066	1748	2036	2000	65270,5383300781	-10,4752475247525	0,178217821782178	-2,97029702970297	-0,100470957613815	-0,251177394034537
41793	971	2055	1746	2075	2091	65275,4211425781	-10,6633663366337	0,0693069306930693	-2,99009900990099	0,0627943485086342	0,129774986917844
41953	1002	2062	1732	2084	2106	65280,3039550781	-10,3564356435644	0,138613861386139	-3,12871287128713	0,100470957613815	0,192569335426478
42113	977	2048	1724	2047	2018	65285,1867675781	-10,6039603960396	0	-3,20792079207921	-0,054421768707483	-0,175824175824176
42273	994	2053	1722	2033	2003	65290,0695800781	-10,4356435643564	0,0495049504950495	-3,22772277227723	-0,113029827315542	-0,23861852433281
42433	974	2069	1724	2070	2091	65294,9523925781	-10,6336633663366	0,207920792079208	-3,20792079207921	0,0418628990057562	0,129774986917844
42593	981	2078	1717	2085	2116	65299,8352050781	-10,5643564356436	0,297029702970297	-3,27722772277228	0,10465724751439	0,234432234432234
42753	1003	2061	1721	2052	2036	65304,7180175781	-10,3465346534653	0,128712871287129	-3,23762376237624	-0,0334903192046049	-0,100470957613815
42913	991	2075	1719	2038	1998	65309,6008300781	-10,4653465346535	0,267326732673267	-3,25742574257426	-0,0920983778126635	-0,259549973835688
43073	991	2069	1733	2072	2084	65314,4836425781	-10,4653465346535	0,207920792079208	-3,11881188118812	0,0502354788069074	0,100470957613815
43233	983	2075	1767	2087	2120	65319,3664550781	-10,5445544554455	0,267326732673267	-2,78217821782178	0,113029827315542	0,251177394034537
43393	988	2066	1767	2055	2046	65324,2492675781	-10,4950495049505	0,178217821782178	-2,78217821782178	-0,0209314495028781	-0,0586080586080586
43553	992	2046	1762	2025	2001	65329,1320800781	-10,4554455445545	-0,0198019801980198	-2,83168316831683	-0,146520146520147	-0,246991104133961
43713	977	2067	1720	2057	2071	65334,0148925781	-10,6039603960396	0,188118811881188	-3,24752475247525	-0,0125588697017268	0,0460491889063318
43873	968	2057	1752	2085	2115	65338,8977050781	-10,6930693069307	0,0891089108910891	-2,93069306930693	0,10465724751439	0,230245944531659
44033	992	2078	1746	2057	2049	65343,7805175781	-10,4554455445545	0,297029702970297	-2,99009900990099	-0,0125588697017268	-0,0460491889063318
44193	999	2057	1766	2032	2000	65348,6633300781	-10,3861386138614	0,0891089108910891	-2,79207920792079	-0,117216117216117	-0,251177394034537
44353	1014	2055	1778	2055	2060	65353,5461425781	-10,2376237623762	0,0693069306930693	-2,67326732673267	-0,0209314495028781	0
44513	980	2062	1749	2080	2115	65358,4289550781	-10,5742574257426	0,138613861386139	-2,96039603960396	0,0837257980115123	0,230245944531659
44673	984	2059	1741	2053	2056	65363,3117675781	-10,5346534653465	0,108910891089109	-3,03960396039604	-0,0293040293040293	-0,0167451596023025
44833	973	2057	1769	2027	2005	65368,1945800781	-10,6435643564356	0,0891089108910891	-2,76237623762376	-0,138147566718995	-0,230245944531659
44993	984	2058	1752	2052	2050	65373,0773925781	-10,5346534653465	0,099009900990099	-2,93069306930693	-0,0334903192046049	-0,0418628990057562
45153	986	2069	1751	2078	2105	65377,9602050781	-10,5148514851485	0,207920792079208	-2,94059405940594	0,0753532182103611	0,188383045525903
45313	999	2061	1739	2057	2062	65382,8430175781	-10,3861386138614	0,128712871287129	-3,05940594059406	-0,0125588697017268	0,00837257980115123
45473	987	2065	1726	2035	2004	65387,7258300781	-10,5049504950495	0,168316831683168	-3,18811881188119	-0,10465724751439	-0,234432234432234
45633	976	2085	1735	2051	2041	65392,6086425781	-10,6138613861386	0,366336633663366	-3,0990099009901	-0,0376766091051805	-0,0795395081109367
45793	974	2061	1755	2079	2098	65397,4914550781	-10,6336633663366	0,128712871287129	-2,9009900990099	0,0795395081109367	0,159079016221873
45953	1004	2046	1744	2058	2067	65402,3742675781	-10,3366336633663	-0,0198019801980198	-3,00990099009901	-0,00837257980115123	0,0293040293040293
46113	983	2067	1741	2032	2004	65407,2570800781	-10,5445544554455	0,188118811881188	-3,03960396039604	-0,117216117216117	-0,234432234432234
46273	993	2067	1718	2051	2031	65412,1398925781	-10,4455445544554	0,188118811881188	-3,26732673267327	-0,0376766091051805	-0,121402407116693
46433	987	2058	1769	2079	2087	65417,0227050781	-10,5049504950495	0,099009900990099	-2,76237623762376	0,0795395081109367	0,113029827315542
46593	981	2053	1759	2069	2071	65421,9055175781	-10,5643564356436	0,0495049504950495	-2,86138613861386	0,0376766091051805	0,0460491889063318
46753	964	2071	1765	2038	2010	65426,7883300781	-10,7326732673267	0,227722772277228	-2,8019801980198	-0,0920983778126635	-0,209314495028781
46913	1001	2045	1764	2043	2020	65431,6711425781	-10,3663366336634	-0,0297029702970297	-2,81188118811881	-0,0711669283097855	-0,167451596023025
47073	984	2064	1732	2068	2083	65436,5539550781	-10,5346534653465	0,158415841584158	-3,12871287128713	0,0334903192046049	0,0962846677132392
47233	986	2068	1767	2057	2065	65441,4367675781	-10,5148514851485	0,198019801980198	-2,78217821782178	-0,0125588697017268	0,0209314495028781
47393	959	2046	1760	2037	2013	65446,3195800781	-10,7821782178218	-0,0198019801980198	-2,85148514851485	-0,0962846677132392	-0,196755625327054
47553	985	2072	1747	2044	2018	65451,2023925781	-10,5247524752475	0,237623762376238	-2,98019801980198	-0,0669806384092098	-0,175824175824176
47713	1002	2073	1762	2071	2072	65456,0852050781	-10,3564356435644	0,247524752475248	-2,83168316831683	0,0460491889063318	0,0502354788069074
47873	978	2055	1763	2072	2071	65460,9680175781	-10,5940594059406	0,0693069306930693	-2,82178217821782	0,0502354788069074	0,0460491889063318
48033	983	2052	1765	2044	2018	65465,8508300781	-10,5445544554455	0,0396039603960396	-2,8019801980198	-0,0669806384092098	-0,175824175824176
48193	982	2054	1754	2043	2018	65470,7336425781	-10,5544554455446	0,0594059405940594	-2,91089108910891	-0,0711669283097855	-0,175824175824176
48353	980	2050	1720	2054	2067	65475,6164550781	-10,5742574257426	0,0198019801980198	-3,24752475247525	-0,0251177394034537	0,0293040293040293
48513	1001	2067	1717	2065	2072	65480,4992675781	-10,3663366336634	0,188118811881188	-3,27722772277228	0,0209314495028781	0,0502354788069074
48673	993	2044	1728	2044	2022	65485,3820800781	-10,4455445544554	-0,0396039603960396	-3,16831683168317	-0,0669806384092098	-0,159079016221873
48833	983	2046	1753	2041	2013	65490,2648925781	-10,5445544554455	-0,0198019801980198	-2,92079207920792	-0,0795395081109367	-0,196755625327054
48993	974	2067	1749	2066	2063	65495,1477050781	-10,6336633663366	0,188118811881188	-2,96039603960396	0,0251177394034537	0,0125588697017268
49153	979	2076	1711	2073	2075	65500,0305175781	-10,5841584158416	0,277227722772277	-3,33663366336634	0,054421768707483	0,0627943485086342
49313	1000	2068	1732	2049	2032	65504,9133300781	-10,3762376237624	0,198019801980198	-3,12871287128713	-0,0460491889063318	-0,117216117216117
49473	988	2064	1741	2040	2016	65509,7961425781	-10,4950495049505	0,158415841584158	-3,03960396039604	-0,0837257980115123	-0,184196755625327
49633	963	2050	1771	2057	2057	65514,6789550781	-10,7425742574257	0,0198019801980198	-2,74257425742574	-0,0125588697017268	-0,0125588697017268
49793	978	2074	1766	2070	2073	65519,5617675781	-10,5940594059406	0,257425742574257	-2,79207920792079	0,0418628990057562	0,054421768707483
49953	994	2037	1745	2052	2041	65524,4445800781	-10,4356435643564	-0,108910891089109	-3	-0,0334903192046049	-0,0795395081109367
50113	984	2079	1751	2045	2017	65529,3273925781	-10,5346534653465	0,306930693069307	-2,94059405940594	-0,0627943485086342	-0,180010465724751
50273	984	2076	1757	2057	2051	65534,2102050781	-10,5346534653465	0,277227722772277	-2,88118811881188	-0,0125588697017268	-0,0376766091051805
50433	1005	2062	1782	2071	2074	65539,0930175781	-10,3267326732673	0,138613861386139	-2,63366336633663	0,0460491889063318	0,0586080586080586
50593	976	2053	1763	2049	2042	65543,9758300781	-10,6138613861386	0,0495049504950495	-2,82178217821782	-0,0460491889063318	-0,0753532182103611
50753	992	2058	1777	2034	2015	65548,8586425781	-10,4554455445545	0,099009900990099	-2,68316831683168	-0,108843537414966	-0,188383045525903
50913	1002	2043	1742	2051	2045	65553,7414550781	-10,3564356435644	-0,0495049504950495	-3,02970297029703	-0,0376766091051805	-0,0627943485086342
51073	1000	2067	1764	2067	2071	65558,6242675781	-10,3762376237624	0,188118811881188	-2,81188118811881	0,0293040293040293	0,0460491889063318
51233	1003	2067	1766	2056	2047	65563,5070800781	-10,3465346534653	0,188118811881188	-2,79207920792079	-0,0167451596023025	-0,054421768707483
51393	977	2045	1733	2041	2021	65568,3898925781	-10,6039603960396	-0,0297029702970297	-3,11881188118812	-0,0795395081109367	-0,163265306122449
51553	997	2070	1739	2058	2048	65573,2727050781	-10,4059405940594	0,217821782178218	-3,05940594059406	-0,00837257980115123	-0,0502354788069074
51713	983	2064	1739	2075	2078	65578,1555175781	-10,5445544554455	0,158415841584158	-3,05940594059406	0,0627943485086342	0,0753532182103611
51873	985	2071	1743	2061	2060	65583,0383300781	-10,5247524752475	0,227722772277228	-3,01980198019802	0,00418628990057562	0
52033	976	2063	1761	2032	2028	65587,9211425781	-10,6138613861386	0,148514851485149	-2,84158415841584	-0,117216117216117	-0,13396127681842
52193	982	2056	1734	2045	2049	65592,8039550781	-10,5544554455446	0,0792079207920792	-3,10891089108911	-0,0627943485086342	-0,0460491889063318
52353	1003	2066	1740	2071	2079	65597,6867675781	-10,3465346534653	0,178217821782178	-3,04950495049505	0,0460491889063318	0,0795395081109367
52513	955	2102	1894	2056	2060	65602,5695800781	-10,8217821782178	0,534653465346535	-1,52475247524752	-0,0167451596023025	0
52673	995	2066	1705	2043	2029	65607,4523925781	-10,4257425742574	0,178217821782178	-3,3960396039604	-0,0711669283097855	-0,129774986917844
52833	991	2039	1768	2046	2042	65612,3352050781	-10,4653465346535	-0,0891089108910891	-2,77227722772277	-0,0586080586080586	-0,0753532182103611
52993	959	2287	1683	2071	2070	65617,2180175781	-10,7821782178218	2,36633663366337	-3,61386138613861	0,0460491889063318	0,0418628990057562
53153	957	1963	1784	2047	2055	65622,1008300781	-10,8019801980198	-0,841584158415842	-2,61386138613861	-0,054421768707483	-0,0209314495028781
53313	981	2003	1796	2039	2027	65626,9836425781	-10,5643564356436	-0,445544554455446	-2,4950495049505	-0,0879120879120879	-0,138147566718995
53473	1009	2074	1727	2049	2039	65631,8664550781	-10,2871287128713	0,257425742574257	-3,17821782178218	-0,0460491889063318	-0,0879120879120879
53633	990	2028	1702	2068	2067	65636,7492675781	-10,4752475247525	-0,198019801980198	-3,42574257425743	0,0334903192046049	0,0293040293040293
53793	974	2050	1740	2059	2062	65641,6320800781	-10,6336633663366	0,0198019801980198	-3,04950495049505	-0,00418628990057562	0,00837257980115123
53953	986	2090	1778	2043	2032	65646,5148925781	-10,5148514851485	0,415841584158416	-2,67326732673267	-0,0711669283097855	-0,117216117216117
