Shimmer1	Shimmer1	Shimmer1	Shimmer1	Shimmer1	Shimmer1	Shimmer1
Timestamp	Accelerometer X*	Accelerometer Y*	Accelerometer Z*	Gyroscope X*	Gyroscope Y*	Gyroscope Z*
uncalibrated	uncalibrated	uncalibrated	uncalibrated	uncalibrated	uncalibrated	uncalibrated
no units	no units	no units	no units	no units	no units	no units
115842786	1804	1067	1811	1797	1098	1837
115842946	1839	1107	1820	1817	1061	1810
115843106	1840	1069	1813	1892	1098	1812
115843266	1871	1111	1802	1893	1110	1816
115843426	1935	1137	1852	1892	1129	1763
115843586	1910	1173	1802	1870	1198	1759
115843746	1847	1210	1762	1831	1161	1744
115843906	1775	1104	1792	1727	1061	1814
115844066	1710	1040	1826	1706	1027	1812
115844226	1708	1048	1809	1759	1086	1778
115844386	1773	1131	1761	1794	1195	1724
115844546	1807	1262	1691	1930	1291	1684
115844706	1802	1356	1614	1876	1361	1658
115844866	1900	1376	1616	1932	1358	1596
115845026	1958	1332	1581	2005	1275	1598
115845186	2045	1201	1588	2039	1151	1598
115845346	2068	1101	1610	2059	1083	1600
115845506	2051	1056	1605	2024	1047	1608
115845666	2002	1038	1598	1957	1036	1591
115845826	1947	1044	1617	1945	1053	1620
115845986	1930	1075	1609	1935	1073	1613
115846146	1947	1068	1638	1945	1083	1628
115846306	1962	1119	1611	1955	1140	1615
115846466	1940	1164	1593	1948	1185	1589
115846626	1935	1223	1607	1963	1235	1565
115846786	1976	1256	1536	1966	1274	1526
115846946	1973	1273	1543	1966	1246	1552
115847106	1992	1211	1557	1987	1233	1581
115847266	1999	1225	1589	1966	1209	1586
115847426	1943	1168	1596	1920	1137	1623
115847586	1895	1101	1656	1864	1081	1692
115847746	1846	1074	1681	1818	1100	1678
115847906	1830	1091	1666	1822	1136	1679
115848066	1833	1146	1664	1842	1162	1656
115848226	1865	1182	1637	1887	1155	1632
115848386	1899	1178	1635	1926	1153	1650
115848546	1928	1167	1664	1936	1191	1649
115848706	1928	1191	1646	1892	1184	1635
115848866	1879	1217	1658	1868	1230	1659
115849026	1842	1238	1656	1809	1225	1676
115849186	1792	1189	1678	1779	1151	1706
115849346	1757	1132	1718	1735	1119	1728
115849506	1741	1125	1732	1762	1140	1742
115849666	1791	1131	1732	1809	1152	1687
115849826	1839	1172	1654	1875	1216	1625
115849986	1911	1230	1601	1919	1251	1593
115850146	3323	301	2548	2101	1065	1700
115850306	2030	1198	1482	1983	1245	1573
115850466	1975	1208	1668	1875	1111	1592
115850626	1952	1321	1594	1982	1412	1570
115850786	1909	1259	1569	2025	1063	1801
115850946	1903	1405	1514	1838	1455	1475
115851106	1873	1293	1596	1910	1231	1768
115851266	1918	1180	1713	1964	1427	1928
115851426	1780	905	1539	1900	1295	2175
115851586	1710	1460	1463	1813	1444	1570
115851746	1924	1393	1643	2049	1097	1839
115851906	1874	1055	1439	1941	973	1551
115852066	2128	1367	1677	1979	792	839
115852226	1968	1293	1922	1901	1176	1632
115852386	1754	1440	2294	1753	1443	2265
115852546	1762	1461	2277	1774	1454	2270
115852706	1797	1477	2302	1819	1466	2302
115852866	1842	1484	2321	1824	1490	2272
115853026	0	0	0	0	0	0
115853186	0	0	0	0	0	0
115853346	0	0	0	0	0	0
115853506	0	0	0	0	0	0
115853666	0	0	0	0	0	0
115853826	0	0	0	0	0	0
115853986	0	0	0	0	0	0
115854146	0	0	0	0	0	0
115854306	0	0	0	0	0	0
115854466	2681	2059	2194	1937	1803	1903
115854626	2678	2058	2205	1937	1803	1903
115854786	2655	2054	2216	1937	1803	1903
115854946	2668	2045	2199	1937	1803	1903
115855106	2672	2057	2207	1937	1803	1903
115855266	2682	2063	2189	1937	1803	1903
115855426	2673	2055	2182	1937	1803	1903
115855586	2681	2053	2214	1937	1803	1903
115855746	2673	2059	2202	1937	1803	1903
115855906	2663	2065	2182	1937	1803	1903
115856066	2674	2046	2201	1937	1803	1903
115856226	2670	2058	2196	1937	1803	1903
115856386	2679	2047	2200	1937	1803	1903
115856546	2676	2039	2189	1937	1803	1903
115856706	2675	2060	2198	1937	1803	1903
115856866	2683	2075	2180	1937	1803	1903
115857026	2681	2075	2209	1937	1803	1903
115857186	2687	2038	2214	1937	1803	1903
115857346	2677	2064	2195	1937	1803	1903
115857506	2672	2058	2189	1937	1803	1903
115857666	2690	2067	2206	1937	1803	1903
115857826	2683	2043	2199	1937	1803	1903
115857986	2686	2063	2197	1937	1803	1903
115858146	2673	2041	2193	1937	1803	1903
115858306	2690	2052	2203	1937	1803	1903
115858466	2678	2049	2199	1937	1803	1903
115858626	2666	2038	2197	1937	1803	1903
115858786	2678	2052	2207	1937	1803	1903
115858946	2669	2063	2196	1937	1803	1903
115859106	2691	2051	2186	1937	1803	1903
115859266	2657	2061	2195	1937	1803	1903
115859426	2685	2058	2192	1937	1803	1903
115859586	2657	2068	2198	1937	1803	1903
115859746	2675	2064	2198	1937	1803	1903
115859906	2671	2055	2189	1937	1803	1903
115860066	2679	2047	2190	1937	1803	1903
115860226	2676	2054	2203	1937	1803	1903
115860386	2683	2050	2205	1937	1803	1903
115860546	2674	2040	2196	1937	1803	1903
115860706	2680	2044	2208	1937	1803	1903
115860866	2678	2071	2192	1937	1803	1903
115861026	2684	2054	2205	1937	1803	1903
115861186	2664	2051	2193	1937	1803	1903
115861346	2674	2068	2187	1937	1803	1903
115861506	2687	2059	2184	1937	1803	1903
115861666	2682	2059	2197	1937	1803	1903
115861826	2677	2060	2194	1937	1803	1903
115861986	2678	2079	2194	1937	1803	1903
115862146	2680	2067	2197	1937	1803	1903
115862306	2683	2061	2204	1937	1803	1903
115862466	2679	2051	2209	1937	1803	1903
115862626	2692	2036	2194	1937	1803	1903
115862786	2712	2033	2215	1937	1803	1903
115862946	2684	2065	2213	1937	1803	1903
115863106	2675	2071	2208	1937	1803	1903
115863266	2669	2074	2181	1937	1803	1903
115863426	2672	2052	2185	1937	1803	1903
115863586	2683	2052	2179	1937	1803	1903
115863746	2643	2063	2134	1937	1803	1903
115863906	2673	2049	2204	1937	1803	1903
115864066	2696	2030	2197	1937	1803	1903
115864226	2695	2043	2178	1937	1803	1903
115864386	2683	2039	2198	1937	1803	1903
115864546	2685	2053	2193	1937	1803	1903
115864706	2700	2076	2203	1937	1803	1903
115864866	2676	2046	2205	1937	1803	1903
115865026	2677	2073	2196	1937	1803	1903
115865186	2678	2057	2200	1937	1803	1903
115865346	2679	2035	2208	1937	1803	1903
115865506	2690	2051	2201	1937	1803	1903
115865666	2688	2049	2194	1937	1803	1903
115865826	2684	2068	2188	1937	1803	1903
115865986	2688	2040	2205	1937	1803	1903
115866146	2672	2043	2194	1937	1803	1903
115866306	2666	2050	2196	1937	1803	1903
115866466	2691	2065	2224	1937	1803	1903
115866626	2675	2052	2216	1937	1803	1903
115866786	2688	2041	2205	1937	1803	1903
115866946	2682	2047	2205	1937	1803	1903
115867106	2689	2044	2191	1937	1803	1903
115867266	2669	2048	2188	1937	1803	1903
115867426	2674	2062	2193	1937	1803	1903
115867586	2656	2061	2209	1937	1803	1903
115867746	2671	2054	2187	1937	1803	1903
115867906	2663	2044	2191	1937	1803	1903
115868066	2671	2064	2203	1937	1803	1903
115868226	2692	2045	2212	1937	1803	1903
115868386	2683	2055	2208	1937	1803	1903
115868546	2686	2060	2193	1937	1803	1903
115868706	2686	2042	2227	1937	1803	1903
115868866	2669	2048	2202	1937	1803	1903
115869026	2687	2040	2199	1937	1803	1903
115869186	2679	2052	2198	1937	1803	1903
115869346	2688	2053	2213	1937	1803	1903
115869506	2678	2064	2196	1937	1803	1903
115869666	2679	2046	2205	1937	1803	1903
115869826	2684	2062	2197	1937	1803	1903
115869986	2682	2050	2197	1937	1803	1903
115870146	2678	2054	2198	1937	1803	1903
115870306	2660	2050	2196	1937	1803	1903
115870466	2662	2050	2187	1937	1803	1903
115870626	2678	2049	2201	1937	1803	1903
115870786	2675	2045	2199	1937	1803	1903
115870946	2684	2038	2184	1937	1803	1903
115871106	2671	2055	2189	1937	1803	1903
115871266	2673	2061	2175	1937	1803	1903
115871426	2671	2040	2196	1937	1803	1903
115871586	2672	2053	2192	1937	1803	1903
115871746	2680	2042	2196	1937	1803	1903
115871906	2669	2056	2205	1937	1803	1903
115872066	2685	2056	2203	1937	1803	1903
115872226	2672	2052	2199	1937	1803	1903
115872386	2674	2056	2207	1937	1803	1903
115872546	2690	2043	2200	1937	1803	1903
115872706	2674	2046	2201	1937	1803	1903
115872866	2669	2054	2211	1937	1803	1903
115873026	2669	2046	2196	1937	1803	1903
115873186	2675	2048	2207	1937	1803	1903
115873346	2677	2052	2189	1937	1803	1903
115873506	2670	2056	2203	1937	1803	1903
115873666	2670	2057	2201	1937	1803	1903
115873826	2672	2060	2204	1937	1803	1903
115873986	2675	2051	2205	1937	1803	1903
115874146	2675	2055	2199	1937	1803	1903
115874306	2687	2047	2197	1937	1803	1903
115874466	2673	2056	2208	1937	1803	1903
115874626	2682	2041	2190	1937	1803	1903
115874786	2669	2062	2218	1937	1803	1903
115874946	2673	2063	2198	1937	1803	1903
115875106	2674	2048	2204	1937	1803	1903
115875266	2680	2054	2202	1937	1803	1903
115875426	2693	2040	2210	1937	1803	1903
115875586	2693	2050	2213	1937	1803	1903
115875746	2660	2044	2218	1937	1803	1903
115875906	2676	2046	2212	1937	1803	1903
115876066	2676	2052	2210	1937	1803	1903
115876226	2680	2052	2219	1937	1803	1903
115876386	2667	2041	2208	1937	1803	1903
115876546	2659	2042	2197	1937	1803	1903
115876706	2673	2057	2192	1937	1803	1903
115876866	2674	2052	2203	1937	1803	1903
115877026	2681	2049	2196	1937	1803	1903
115877186	2670	2053	2207	1937	1803	1903
115877346	2681	2059	2215	1937	1803	1903
115877506	2683	2057	2215	1937	1803	1903
115877666	2677	2057	2194	1937	1803	1903
115877826	2676	2050	2206	1937	1803	1903
115877986	2678	2038	2203	1937	1803	1903
115878146	2653	2040	2208	1937	1803	1903
115878306	2662	2051	2187	1937	1803	1903
115878466	2676	2067	2201	1937	1803	1903
115878626	2690	2061	2148	1937	1803	1903
115878786	2663	2049	2195	1937	1803	1903
115878946	2682	2055	2226	1937	1803	1903
115879106	2696	2017	2223	1937	1803	1903
115879266	2686	2053	2215	1937	1803	1903
115879426	2677	2053	2205	1937	1803	1903
115879586	2668	2021	2195	1937	1803	1903
115879746	2670	2048	2215	1937	1803	1903
115879906	2670	2064	2195	1937	1803	1903
115880066	2661	2060	2192	1937	1803	1903
115880226	2660	2051	2212	1937	1803	1903
115880386	2672	2035	2208	1937	1803	1903
115880546	2665	2044	2202	1937	1803	1903
115880706	2678	2054	2201	1937	1803	1903
115880866	2687	2051	2197	1937	1803	1903
115881026	2659	2057	2214	1937	1803	1903
115881186	2667	2055	2212	1937	1803	1903
115881346	2670	2038	2205	1937	1803	1903
115881506	2663	2049	2211	1937	1803	1903
115881666	2687	2051	2199	1937	1803	1903
115881826	2668	2038	2202	1937	1803	1903
115881986	2680	2044	2208	1937	1803	1903
115882146	2659	2061	2202	1937	1803	1903
115882306	2672	2051	2202	1937	1803	1903
115882466	2672	2057	2215	1937	1803	1903
115882626	2667	2056	2223	1937	1803	1903
115882786	2675	2053	2199	1937	1803	1903
115882946	2681	2046	2198	1937	1803	1903
115883106	2667	2049	2217	1937	1803	1903
115883266	2686	2049	2197	1937	1803	1903
115883426	2673	2058	2200	1937	1803	1903
115883586	2672	2053	2207	1937	1803	1903
115883746	2671	2053	2221	1937	1803	1903
115883906	2676	2054	2193	1937	1803	1903
115884066	2673	2066	2200	1937	1803	1903
115884226	2678	2055	2213	1937	1803	1903
115884386	2679	2061	2200	1937	1803	1903
115884546	2668	2066	2200	1937	1803	1903
115884706	2674	2049	2205	1937	1803	1903
115884866	2675	2064	2211	1937	1803	1903
115885026	2670	2039	2198	1937	1803	1903
115885186	2667	2044	2233	1937	1803	1903
115885346	2665	2049	2201	1937	1803	1903
115885506	2676	2054	2208	1937	1803	1903
115885666	2677	2039	2215	1937	1803	1903
115885826	2682	2060	2210	1937	1803	1903
115885986	2667	2054	2209	1937	1803	1903
115886146	2661	2039	2214	1937	1803	1903
115886306	2669	2060	2200	1937	1803	1903
115886466	2660	2049	2222	1937	1803	1903
115886626	2684	2069	2204	1937	1803	1903
115886786	2673	2057	2201	1937	1803	1903
115886946	2673	2059	2197	1937	1803	1903
115887106	2671	2050	2201	1937	1803	1903
115887266	2673	2061	2231	1937	1803	1903
115887426	2676	2046	2212	1937	1803	1903
115887586	2667	2054	2207	1937	1803	1903
115887746	2664	2055	2206	1937	1803	1903
115887906	2677	2063	2212	1937	1803	1903
115888066	2678	2051	2211	1937	1803	1903
115888226	2671	2035	2207	1937	1803	1903
115888386	2695	2054	2204	1937	1803	1903
115888546	2682	2061	2203	1937	1803	1903
115888706	2666	2054	2213	1937	1803	1903
115888866	2670	2060	2211	1937	1803	1903
115889026	2655	2046	2215	1937	1803	1903
115889186	2664	2051	2206	1937	1803	1903
115889346	2670	2050	2203	1937	1803	1903
115889506	2673	2047	2207	1937	1803	1903
115889666	2681	2053	2226	1937	1803	1903
115889826	2689	2038	2232	1937	1803	1903
115889986	2674	2052	2215	1937	1803	1903
115890146	2658	2044	2216	1937	1803	1903
115890306	2667	2044	2203	1937	1803	1903
115890466	2659	2049	2207	1937	1803	1903
115890626	2672	2056	2206	1937	1803	1903
115890786	2642	2076	2212	1937	1803	1903
115890946	2678	2044	2218	1937	1803	1903
115891106	2672	2046	2211	1937	1803	1903
115891266	2660	2031	2217	1937	1803	1903
115891426	2675	2052	2210	1937	1803	1903
115891586	2675	2056	2215	1937	1803	1903
115891746	2672	2045	2215	1937	1803	1903
115891906	2677	2060	2211	1937	1803	1903
115892066	2680	2056	2207	1937	1803	1903
115892226	2674	2058	2219	1937	1803	1903
115892386	2656	2043	2203	1937	1803	1903
115892546	2667	2068	2214	1937	1803	1903
115892706	2665	2049	2217	1937	1803	1903
115892866	2670	2046	2217	1937	1803	1903
115893026	2675	2054	2216	1937	1803	1903
115893186	2667	2045	2197	1937	1803	1903
115893346	2671	2060	2222	1937	1803	1903
115893506	2670	2051	2206	1937	1803	1903
115893666	2677	2052	2220	1937	1803	1903
115893826	2688	2037	2212	1937	1803	1903
115893986	2676	2056	2210	1937	1803	1903
115894146	2680	2052	2202	1937	1803	1903
115894306	2686	2049	2201	1937	1803	1903
115894466	2659	2048	2202	1937	1803	1903
115894626	2674	2055	2204	1937	1803	1903
115894786	2678	2056	2210	1937	1803	1903
115894946	2684	2041	2213	1937	1803	1903
115895106	2672	2058	2189	1937	1803	1903
115895266	2649	2065	2204	1937	1803	1903
115895426	2656	2070	2195	1937	1803	1903
115895586	2671	2051	2208	1937	1803	1903
115895746	2688	2049	2216	1937	1803	1903
115895906	2672	2046	2215	1937	1803	1903
115896066	2674	2043	2233	1937	1803	1903
115896226	2687	2051	2207	1937	1803	1903
115896386	2672	2035	2214	1937	1803	1903
115896546	2685	2038	2221	1937	1803	1903
115896706	2658	2043	2235	1937	1803	1903
115896866	2687	2048	2217	1937	1803	1903
115897026	2678	2037	2237	1937	1803	1903
115897186	2679	2044	2229	1937	1803	1903
115897346	2602	2119	2233	1937	1803	1903
115897506	2669	2017	2226	1937	1803	1903
115897666	2671	2061	2198	1937	1803	1903
115897826	2704	2040	2235	1937	1803	1903
115897986	2699	2029	2212	1937	1803	1903
115898146	2707	2052	2215	1937	1803	1903
115898306	2676	2072	2210	1937	1803	1903
115898466	2639	2073	2208	1937	1803	1903
115898626	2648	2064	2212	1937	1803	1903
115898786	2652	2053	2211	1937	1803	1903
115898946	2642	2033	2206	1937	1803	1903
115899106	2666	2056	2221	1937	1803	1903
115899266	2675	2079	2219	1937	1803	1903
115899426	2784	2164	2284	1937	1803	1903
115899586	3046	1984	2352	1937	1803	1903
115899746	2542	1954	2066	1937	1803	1903
115899906	2502	1914	2096	1937	1803	1903
115900066	2533	2026	2097	1937	1803	1903
115900226	2614	2074	2169	1937	1803	1903
115900386	2660	2109	2215	1937	1803	1903
115900546	2665	2087	2231	1937	1803	1903
115900706	2688	2059	2265	1937	1803	1903
115900866	2699	2059	2274	1937	1803	1903
115901026	2723	2071	2281	1937	1803	1903
115901186	2717	2051	2250	1937	1803	1903
115901346	2726	2041	2249	1937	1803	1903
115901506	2717	2035	2222	1937	1803	1903
115901666	2703	2057	2246	1937	1803	1903
115901826	2659	2066	2230	1937	1803	1903
115901986	2653	2047	2248	1937	1803	1903
115902146	2672	2079	2241	1937	1803	1903
115902306	2674	2078	2237	1937	1803	1903
115902466	2581	2031	2251	1937	1803	1903
115902626	2628	2159	2222	1937	1803	1903
115902786	2638	2077	2237	1937	1803	1903
115902946	2680	2113	2279	1937	1803	1903
115903106	2654	2120	2305	1937	1803	1903
115903266	2644	2110	2330	1937	1803	1903
115903426	2647	2153	2337	1937	1803	1903
115903586	2635	2117	2302	1937	1803	1903
115903746	2621	2126	2338	1937	1803	1903
115903906	2604	2138	2335	1937	1803	1903
115904066	2613	2108	2358	1937	1803	1903
115904226	2650	2094	2360	1937	1803	1903
115904386	2588	2120	2322	1937	1803	1903
115904546	2592	2104	2341	1937	1803	1903
115904706	2665	2064	2439	1937	1803	1903
115904866	2720	2050	2485	1937	1803	1903
115905026	2737	2063	2483	1937	1803	1903
115905186	2740	2081	2469	1937	1803	1903
115905346	2737	2050	2459	1937	1803	1903
115905506	2745	2029	2416	1937	1803	1903
115905666	2730	2006	2358	1937	1803	1903
115905826	2713	2003	2326	1937	1803	1903
115905986	2692	2003	2251	1937	1803	1903
115906146	2696	2000	2276	1937	1803	1903
115906306	2667	1982	2273	1937	1803	1903
115906466	2656	1947	2328	1937	1803	1903
115906626	2608	2002	2283	1937	1803	1903
115906786	3149	1348	2286	1937	1803	1903
115906946	2880	1880	2330	1937	1803	1903
115907106	2686	1927	2243	1937	1803	1903
115907266	2515	2056	2192	1937	1803	1903
115907426	2407	2069	2175	1937	1803	1903
115907586	2351	2031	2259	1937	1803	1903
115907746	2137	2105	2450	1937	1803	1903
115907906	2168	1925	2306	1937	1803	1903
115908066	2258	1912	2449	1937	1803	1903
115908226	2321	1922	2546	1937	1803	1903
115908386	2429	1883	2631	1937	1803	1903
115908546	2486	1856	2658	1937	1803	1903
115908706	2450	1854	2523	1937	1803	1903
115908866	2416	1903	2417	1937	1803	1903
115909026	2355	1945	2361	1937	1803	1903
115909186	2305	1970	2291	1937	1803	1903
115909346	2282	1993	2295	1937	1803	1903
115909506	2281	1962	2310	1937	1803	1903
115909666	2294	1916	2317	1937	1803	1903
115909826	2277	1964	2333	1937	1803	1903
115909986	2279	1965	2329	1937	1803	1903
115910146	2295	1904	2336	1937	1803	1903
115910306	2394	1832	2384	1937	1803	1903
115910466	2440	1830	2433	1937	1803	1903
115910626	2401	1898	2466	1937	1803	1903
115910786	2368	1914	2464	1937	1803	1903
115910946	2320	1934	2437	1937	1803	1903
115911106	2322	1928	2433	1937	1803	1903
115911266	2351	1925	2444	1937	1803	1903
115911426	2387	1928	2451	1937	1803	1903
115911586	2395	1940	2435	1937	1803	1903
115911746	2334	1973	2422	1937	1803	1903
115911906	2576	1774	2251	1937	1803	1903
115912066	2722	2020	2471	1937	1803	1903
115912226	2706	2084	2431	1937	1803	1903
115912386	2592	2040	2371	1937	1803	1903
115912546	2460	2041	2394	1937	1803	1903
115912706	2403	2059	2439	1937	1803	1903
115912866	2383	2043	2457	1937	1803	1903
115913026	2392	2044	2471	1937	1803	1903
115913186	2375	2043	2473	1937	1803	1903
115913346	2385	2011	2441	1937	1803	1903
115913506	2394	1998	2426	1937	1803	1903
115913666	2378	2019	2429	1937	1803	1903
115913826	2382	2013	2426	1937	1803	1903
115913986	2384	1962	2420	1937	1803	1903
115914146	2391	2050	2430	1937	1803	1903
115914306	3045	1726	2158	1937	1803	1903
115914466	2370	2057	2379	1937	1803	1903
115914626	2396	2067	2420	1937	1803	1903
115914786	2403	2029	2406	1937	1803	1903
115914946	2397	2022	2420	1937	1803	1903
115915106	2403	2031	2414	1937	1803	1903
115915266	2395	2027	2406	1937	1803	1903
115915426	2390	2033	2412	1937	1803	1903
115915586	2387	2046	2401	1937	1803	1903
115915746	2372	2050	2395	1937	1803	1903
115915906	2364	2066	2397	1937	1803	1903
115916066	2349	2058	2409	1937	1803	1903
115916226	2359	2066	2410	1937	1803	1903
115916386	2363	2048	2430	1937	1803	1903
115916546	2369	2058	2446	1937	1803	1903
115916706	2389	2029	2421	1937	1803	1903
115916866	2400	2032	2415	1937	1803	1903
115917026	2408	2018	2397	1937	1803	1903
115917186	2410	2026	2392	1937	1803	1903
115917346	2393	2032	2389	1937	1803	1903
115917506	2381	2051	2398	1937	1803	1903
115917666	2379	2050	2403	1937	1803	1903
115917826	2399	2049	2428	1937	1803	1903
115917986	2398	2043	2439	1937	1803	1903
115918146	2383	2041	2433	1937	1803	1903
115918306	2378	2055	2431	1937	1803	1903
115918466	2374	2067	2395	1937	1803	1903
115918626	2377	2065	2393	1937	1803	1903
115918786	2376	2064	2387	1937	1803	1903
115918946	2386	2056	2424	1937	1803	1903
115919106	2369	2048	2428	1937	1803	1903
115919266	2351	2040	2421	1937	1803	1903
115919426	2357	2047	2405	1937	1803	1903
115919586	2369	2042	2381	1937	1803	1903
115919746	2382	2063	2381	1937	1803	1903
115919906	2374	2049	2418	1937	1803	1903
115920066	2391	2047	2449	1937	1803	1903
115920226	2387	2035	2460	1937	1803	1903
115920386	2385	2031	2487	1937	1803	1903
115920546	2376	2039	2509	1937	1803	1903
115920706	2397	2034	2505	1937	1803	1903
115920866	2383	1984	2469	1937	1803	1903
115921026	2389	1999	2451	1937	1803	1903
115921186	2373	2004	2470	1937	1803	1903
115921346	2385	1990	2497	1937	1803	1903
115921506	2386	1992	2509	1937	1803	1903
115921666	2383	1985	2499	1937	1803	1903
115921826	2401	1972	2480	1937	1803	1903
115921986	2396	1973	2484	1937	1803	1903
115922146	2418	1986	2569	1937	1803	1903
115922306	2385	1968	2515	1937	1803	1903
115922466	2357	1960	2503	1937	1803	1903
115922626	2348	1945	2486	1937	1803	1903
115922786	2365	1942	2511	1937	1803	1903
115922946	2359	1955	2553	1937	1803	1903
115923106	2344	1930	2575	1937	1803	1903
115923266	2342	1981	2598	1937	1803	1903
115923426	2328	1990	2585	1937	1803	1903
115923586	2322	1983	2592	1937	1803	1903
115923746	2323	1998	2557	1937	1803	1903
115923906	2326	1974	2531	1937	1803	1903
115924066	2319	1989	2537	1937	1803	1903
115924226	2314	1974	2523	1937	1803	1903
115924386	2320	1968	2538	1937	1803	1903
115924546	2356	1953	2506	1937	1803	1903
115924706	2367	1944	2483	1937	1803	1903
115924866	2379	1878	2446	1937	1803	1903
115925026	2339	1896	2444	1937	1803	1903
115925186	2346	1907	2399	1937	1803	1903
115925346	2313	1902	2430	1937	1803	1903
115925506	2330	1914	2380	1937	1803	1903
115925666	2322	1882	2421	1937	1803	1903
115925826	2327	1889	2434	1937	1803	1903
115925986	2273	1891	2459	1937	1803	1903
115926146	2265	1914	2451	1937	1803	1903
115926306	2238	1889	2406	1937	1803	1903
115926466	2208	1907	2387	1937	1803	1903
115926626	2234	1952	2431	1937	1803	1903
115926786	2255	1989	2493	1937	1803	1903
115926946	2248	1950	2509	1937	1803	1903
115927106	2252	1929	2507	1937	1803	1903
115927266	2255	1929	2485	1937	1803	1903
115927426	2274	1965	2415	1937	1803	1903
115927586	2274	1914	2416	1937	1803	1903
115927746	2237	1903	2414	1937	1803	1903
115927906	2230	1900	2413	1937	1803	1903
115928066	2195	1871	2398	1937	1803	1903
115928226	2248	1872	2428	1937	1803	1903
115928386	2218	1827	2450	1937	1803	1903
115928546	2213	1836	2436	1937	1803	1903
115928706	2184	1833	2447	1937	1803	1903
115928866	2167	1905	2457	1937	1803	1903
115929026	2208	1916	2432	1937	1803	1903
115929186	2193	1915	2454	1937	1803	1903
115929346	2179	1866	2455	1937	1803	1903
115929506	2174	1868	2459	1937	1803	1903
115929666	2174	1875	2460	1937	1803	1903
115929826	2172	1895	2426	1937	1803	1903
115929986	2188	1925	2451	1937	1803	1903
115930146	2164	1901	2478	1937	1803	1903
115930306	2168	1880	2482	1937	1803	1903
115930466	2202	1846	2441	1937	1803	1903
115930626	2165	1850	2433	1937	1803	1903
115930786	2147	1831	2436	1937	1803	1903
115930946	2140	1790	2481	1937	1803	1903
115931106	2123	1728	2523	1937	1803	1903
115931266	2097	1743	2540	1937	1803	1903
115931426	2072	1818	2568	1937	1803	1903
115931586	2120	1802	2559	1937	1803	1903
115931746	2131	1851	2504	1937	1803	1903
115931906	2115	1824	2456	1937	1803	1903
115932066	2111	1794	2438	1937	1803	1903
115932226	2117	1771	2449	1937	1803	1903
115932386	2125	1773	2456	1937	1803	1903
115932546	2106	1759	2457	1937	1803	1903
115932706	2095	1777	2482	1937	1803	1903
115932866	2137	1769	2481	1937	1803	1903
115933026	2142	1740	2512	1937	1803	1903
115933186	2162	1750	2549	1937	1803	1903
115933346	2194	1797	2592	1937	1803	1903
115933506	2228	1835	2634	1937	1803	1903
115933666	2251	1817	2646	1937	1803	1903
115933826	2272	1790	2648	1937	1803	1903
115933986	2246	1723	2579	1937	1803	1903
115934146	2175	1732	2552	1937	1803	1903
115934306	2193	1811	2546	1937	1803	1903
115934466	2213	1867	2489	1937	1803	1903
115934626	2180	1882	2451	1937	1803	1903
115934786	2189	1906	2410	1937	1803	1903
115934946	2208	1949	2442	1937	1803	1903
115935106	2205	1898	2457	1937	1803	1903
115935266	2213	1870	2442	1937	1803	1903
115935426	2227	1835	2413	1937	1803	1903
115935586	2246	1824	2415	1937	1803	1903
115935746	2259	1814	2389	1937	1803	1903
115935906	2257	1814	2387	1937	1803	1903
115936066	2262	1832	2387	1937	1803	1903
115936226	2246	1829	2412	1937	1803	1903
115936386	2265	1828	2445	1937	1803	1903
115936546	2263	1802	2486	1937	1803	1903
115936706	2259	1816	2497	1937	1803	1903
115936866	2262	1819	2503	1937	1803	1903
115937026	2263	1798	2491	1937	1803	1903
115937186	2264	1815	2482	1937	1803	1903
115937346	2268	1807	2467	1937	1803	1903
115937506	2285	1795	2457	1937	1803	1903
115937666	2263	1804	2461	1937	1803	1903
115937826	2252	1807	2462	1937	1803	1903
115937986	2250	1790	2461	1937	1803	1903
115938146	2242	1796	2470	1937	1803	1903
115938306	2250	1804	2476	1937	1803	1903
115938466	2246	1800	2474	1937	1803	1903
115938626	2259	1767	2494	1937	1803	1903
115938786	2240	1763	2507	1937	1803	1903
115938946	2246	1768	2462	1937	1803	1903
115939106	2231	1777	2445	1937	1803	1903
115939266	2228	1791	2455	1937	1803	1903
115939426	2231	1795	2449	1937	1803	1903
115939586	2226	1791	2451	1937	1803	1903
115939746	2232	1804	2447	1937	1803	1903
115939906	2215	1796	2455	1937	1803	1903
115940066	2223	1786	2449	1937	1803	1903
115940226	2218	1766	2441	1937	1803	1903
115940386	2225	1776	2462	1937	1803	1903
115940546	2224	1762	2482	1937	1803	1903
115940706	2221	1739	2498	1937	1803	1903
115940866	2236	1732	2509	1937	1803	1903
115941026	2215	1714	2511	1937	1803	1903
115941186	2157	1677	2487	1937	1803	1903
115941346	2229	1723	2494	1937	1803	1903
115941506	2286	1733	2515	1937	1803	1903
115941666	2304	1724	2519	1937	1803	1903
115941826	2255	1734	2513	1937	1803	1903
115941986	2216	1733	2475	1937	1803	1903
115942146	2230	1736	2454	1937	1803	1903
115942306	2228	1740	2432	1937	1803	1903
115942466	2225	1732	2393	1937	1803	1903
115942626	2229	1744	2392	1937	1803	1903
115942786	2210	1717	2385	1937	1803	1903
115942946	2210	1712	2416	1937	1803	1903
115943106	2237	1711	2401	1937	1803	1903
115943266	2231	1699	2414	1937	1803	1903
115943426	2222	1714	2409	1937	1803	1903
115943586	2226	1704	2414	1937	1803	1903
115943746	2229	1708	2430	1937	1803	1903
115943906	2240	1679	2430	1937	1803	1903
115944066	2224	1682	2419	1937	1803	1903
115944226	2224	1679	2449	1937	1803	1903
115944386	2193	1674	2449	1937	1803	1903
115944546	2197	1670	2453	1937	1803	1903
115944706	2231	1679	2462	1937	1803	1903
115944866	2254	1676	2470	1937	1803	1903
115945026	2265	1686	2464	1937	1803	1903
115945186	2242	1680	2467	1937	1803	1903
115945346	2234	1685	2433	1937	1803	1903
115945506	2225	1681	2424	1937	1803	1903
115945666	2215	1668	2411	1937	1803	1903
115945826	2220	1688	2409	1937	1803	1903
115945986	2215	1689	2415	1937	1803	1903
115946146	2225	1681	2416	1937	1803	1903
115946306	2232	1684	2393	1937	1803	1903
115946466	2233	1681	2376	1937	1803	1903
115946626	2205	1668	2414	1937	1803	1903
115946786	2209	1684	2413	1937	1803	1903
115946946	2229	1669	2399	1937	1803	1903
115947106	2199	1683	2407	1937	1803	1903
115947266	2210	1683	2382	1937	1803	1903
115947426	2199	1670	2424	1937	1803	1903
115947586	2209	1657	2421	1937	1803	1903
115947746	2211	1663	2418	1937	1803	1903
115947906	2216	1652	2423	1937	1803	1903
115948066	2196	1632	2451	1937	1803	1903
115948226	2202	1638	2438	1937	1803	1903
115948386	2207	1642	2445	1937	1803	1903
115948546	2217	1637	2433	1937	1803	1903
115948706	2181	1663	2392	1937	1803	1903
115948866	2205	1661	2408	1937	1803	1903
115949026	2205	1665	2429	1937	1803	1903
115949186	2205	1624	2421	1937	1803	1903
115949346	2208	1650	2425	1937	1803	1903
115949506	2192	1648	2416	1937	1803	1903
115949666	2190	1615	2420	1937	1803	1903
115949826	2213	1644	2423	1937	1803	1903
115949986	2191	1651	2430	1937	1803	1903
115950146	2197	1638	2400	1937	1803	1903
115950306	2191	1652	2426	1937	1803	1903
115950466	2201	1633	2406	1937	1803	1903
115950626	2188	1654	2419	1937	1803	1903
115950786	2192	1650	2421	1937	1803	1903
115950946	2194	1645	2429	1937	1803	1903
115951106	2197	1642	2412	1937	1803	1903
115951266	2189	1644	2417	1937	1803	1903
115951426	2196	1631	2417	1937	1803	1903
115951586	2196	1633	2416	1937	1803	1903
115951746	2193	1641	2431	1937	1803	1903
115951906	2194	1646	2428	1937	1803	1903
115952066	2182	1652	2407	1937	1803	1903
115952226	2181	1662	2408	1937	1803	1903
115952386	2194	1652	2403	1937	1803	1903
115952546	2191	1644	2375	1937	1803	1903
115952706	2194	1672	2389	1937	1803	1903
115952866	2200	1659	2420	1937	1803	1903
115953026	2196	1645	2436	1937	1803	1903
115953186	2183	1638	2437	1937	1803	1903
115953346	2199	1649	2439	1937	1803	1903
115953506	2181	1635	2418	1937	1803	1903
115953666	2175	1654	2401	1937	1803	1903
115953826	2183	1620	2421	1937	1803	1903
115953986	2194	1628	2457	1937	1803	1903
115954146	2195	1637	2424	1937	1803	1903
115954306	2174	1658	2415	1937	1803	1903
115954466	2177	1643	2436	1937	1803	1903
115954626	2188	1648	2444	1937	1803	1903
115954786	2180	1639	2438	1937	1803	1903
115954946	2186	1648	2404	1937	1803	1903
115955106	2175	1653	2401	1937	1803	1903
115955266	2176	1664	2392	1937	1803	1903
115955426	2161	1663	2407	1937	1803	1903
115955586	2173	1674	2420	1937	1803	1903
115955746	2173	1661	2437	1937	1803	1903
115955906	2167	1648	2436	1937	1803	1903
115956066	2175	1648	2453	1937	1803	1903
115956226	2171	1659	2385	1937	1803	1903
115956386	2180	1667	2398	1937	1803	1903
115956546	2174	1650	2413	1937	1803	1903
115956706	2156	1650	2416	1937	1803	1903
115956866	2176	1652	2407	1937	1803	1903
115957026	2176	1640	2437	1937	1803	1903
115957186	2175	1645	2443	1937	1803	1903
115957346	2158	1650	2445	1937	1803	1903
115957506	2175	1661	2433	1937	1803	1903
115957666	2178	1657	2413	1937	1803	1903
115957826	2168	1687	2396	1937	1803	1903
115957986	2171	1673	2377	1937	1803	1903
115958146	2147	1667	2395	1937	1803	1903
115958306	2158	1661	2410	1937	1803	1903
115958466	2150	1663	2443	1937	1803	1903
115958626	2154	1661	2440	1937	1803	1903
115958786	2153	1648	2440	1937	1803	1903
115958946	2159	1668	2449	1937	1803	1903
115959106	2152	1659	2434	1937	1803	1903
115959266	2148	1645	2423	1937	1803	1903
115959426	2154	1646	2435	1937	1803	1903
115959586	2146	1663	2429	1937	1803	1903
115959746	2153	1661	2418	1937	1803	1903
115959906	2130	1667	2425	1937	1803	1903
115960066	2144	1668	2423	1937	1803	1903
115960226	2137	1651	2438	1937	1803	1903
115960386	2172	1666	2456	1937	1803	1903
115960546	2139	1665	2444	1937	1803	1903
115960706	2162	1668	2433	1937	1803	1903
115960866	2164	1658	2420	1937	1803	1903
115961026	2156	1654	2416	1937	1803	1903
115961186	2156	1658	2421	1937	1803	1903
115961346	2138	1678	2412	1937	1803	1903
115961506	2160	1657	2403	1937	1803	1903
115961666	2144	1664	2431	1937	1803	1903
115961826	2146	1664	2408	1937	1803	1903
115961986	2156	1659	2413	1937	1803	1903
115962146	2147	1659	2429	1937	1803	1903
115962306	2157	1650	2436	1937	1803	1903
115962466	2139	1653	2443	1937	1803	1903
115962626	2137	1669	2449	1937	1803	1903
115962786	2148	1657	2444	1937	1803	1903
115962946	2149	1643	2429	1937	1803	1903
115963106	2154	1657	2432	1937	1803	1903
115963266	2134	1668	2438	1937	1803	1903
115963426	2141	1668	2448	1937	1803	1903
115963586	2141	1656	2421	1937	1803	1903
115963746	2140	1646	2427	1937	1803	1903
115963906	2137	1657	2401	1937	1803	1903
115964066	2161	1659	2425	1937	1803	1903
115964226	2149	1656	2427	1937	1803	1903
115964386	2147	1666	2428	1937	1803	1903
115964546	2157	1656	2425	1937	1803	1903
115964706	2158	1649	2426	1937	1803	1903
115964866	2149	1659	2419	1937	1803	1903
115965026	2152	1647	2423	1937	1803	1903
115965186	2152	1667	2432	1937	1803	1903
115965346	2137	1656	2429	1937	1803	1903
115965506	2155	1648	2443	1937	1803	1903
115965666	2160	1649	2437	1937	1803	1903
115965826	2150	1643	2442	1937	1803	1903
115965986	2150	1647	2442	1937	1803	1903
115966146	2131	1635	2451	1937	1803	1903
115966306	2137	1653	2441	1937	1803	1903
115966466	2146	1645	2441	1937	1803	1903
115966626	2138	1650	2446	1937	1803	1903
115966786	2157	1652	2430	1937	1803	1903
115966946	2148	1647	2442	1937	1803	1903
115967106	2140	1655	2407	1937	1803	1903
115967266	2160	1650	2436	1937	1803	1903
115967426	2144	1651	2406	1937	1803	1903
115967586	2142	1658	2422	1937	1803	1903
115967746	2142	1648	2413	1937	1803	1903
115967906	2144	1664	2420	1937	1803	1903
115968066	2154	1641	2432	1937	1803	1903
115968226	2147	1634	2410	1937	1803	1903
115968386	2139	1641	2409	1937	1803	1903
115968546	2151	1648	2438	1937	1803	1903
115968706	2144	1654	2429	1937	1803	1903
115968866	2145	1647	2422	1937	1803	1903
115969026	2158	1655	2425	1937	1803	1903
115969186	2155	1639	2428	1937	1803	1903
115969346	2149	1656	2453	1937	1803	1903
115969506	2136	1653	2433	1937	1803	1903
115969666	2155	1664	2405	1937	1803	1903
115969826	2154	1662	2426	1937	1803	1903
115969986	2158	1650	2425	1937	1803	1903
115970146	2147	1657	2439	1937	1803	1903
115970306	2155	1646	2449	1937	1803	1903
115970466	2155	1656	2434	1937	1803	1903
115970626	2153	1638	2446	1937	1803	1903
115970786	2148	1651	2430	1937	1803	1903
115970946	2145	1659	2430	1937	1803	1903
115971106	2144	1653	2444	1937	1803	1903
115971266	2154	1656	2450	1937	1803	1903
115971426	2147	1648	2429	1937	1803	1903
115971586	2176	1620	2410	1937	1803	1903
115971746	2142	1631	2428	1937	1803	1903
115971906	2135	1646	2436	1937	1803	1903
115972066	2126	1672	2443	1937	1803	1903
115972226	2151	1647	2429	1937	1803	1903
115972386	2140	1677	2423	1937	1803	1903
115972546	2156	1678	2427	1937	1803	1903
115972706	2161	1670	2426	1937	1803	1903
115972866	2146	1669	2418	1937	1803	1903
115973026	2166	1655	2436	1937	1803	1903
115973186	2153	1662	2424	1937	1803	1903
115973346	2149	1650	2438	1937	1803	1903
115973506	2148	1675	2426	1937	1803	1903
115973666	2132	1671	2425	1937	1803	1903
115973826	2158	1667	2407	1937	1803	1903
115973986	2149	1672	2393	1937	1803	1903
115974146	2138	1651	2416	1937	1803	1903
115974306	2151	1648	2414	1937	1803	1903
115974466	2135	1644	2447	1937	1803	1903
115974626	2130	1638	2449	1937	1803	1903
115974786	2131	1649	2460	1937	1803	1903
115974946	2137	1648	2454	1937	1803	1903
115975106	2125	1659	2453	1937	1803	1903
115975266	2129	1657	2430	1937	1803	1903
115975426	2146	1642	2435	1937	1803	1903
115975586	2129	1650	2431	1937	1803	1903
115975746	2136	1666	2442	1937	1803	1903
115975906	2138	1642	2428	1937	1803	1903
115976066	2141	1647	2448	1937	1803	1903
115976226	2133	1654	2440	1937	1803	1903
115976386	2144	1640	2434	1937	1803	1903
115976546	2135	1650	2447	1937	1803	1903
115976706	2136	1648	2431	1937	1803	1903
115976866	2144	1655	2450	1937	1803	1903
115977026	2148	1651	2470	1937	1803	1903
115977186	2131	1654	2463	1937	1803	1903
115977346	2152	1659	2447	1937	1803	1903
115977506	2141	1663	2442	1937	1803	1903
115977666	2141	1648	2427	1937	1803	1903
115977826	2141	1670	2426	1937	1803	1903
115977986	2142	1667	2436	1937	1803	1903
115978146	2134	1666	2429	1937	1803	1903
115978306	2147	1672	2430	1937	1803	1903
115978466	2133	1664	2440	1937	1803	1903
115978626	2115	1651	2448	1937	1803	1903
115978786	2130	1652	2432	1937	1803	1903
115978946	2135	1647	2441	1937	1803	1903
115979106	2130	1650	2445	1937	1803	1903
115979266	2143	1638	2441	1937	1803	1903
115979426	2147	1634	2414	1937	1803	1903
115979586	2151	1658	2416	1937	1803	1903
115979746	2138	1646	2426	1937	1803	1903
115979906	2158	1653	2408	1937	1803	1903
115980066	2143	1653	2419	1937	1803	1903
115980226	2138	1663	2438	1937	1803	1903
115980386	2134	1660	2447	1937	1803	1903
115980546	2126	1655	2450	1937	1803	1903
115980706	2144	1650	2440	1937	1803	1903
115980866	2133	1658	2460	1937	1803	1903
115981026	2145	1655	2445	1937	1803	1903
115981186	2135	1666	2437	1937	1803	1903
115981346	2127	1659	2434	1937	1803	1903
115981506	2131	1646	2415	1937	1803	1903
115981666	2123	1663	2426	1937	1803	1903
115981826	2130	1655	2400	1937	1803	1903
115981986	2139	1671	2401	1937	1803	1903
115982146	2130	1673	2394	1937	1803	1903
115982306	2144	1664	2435	1937	1803	1903
115982466	2131	1662	2427	1937	1803	1903
115982626	2140	1654	2432	1937	1803	1903
115982786	2145	1652	2445	1937	1803	1903
115982946	2139	1650	2436	1937	1803	1903
115983106	2128	1650	2431	1937	1803	1903
115983266	2156	1660	2381	1937	1803	1903
115983426	2132	1651	2421	1937	1803	1903
115983586	2140	1656	2417	1937	1803	1903
115983746	2132	1641	2433	1937	1803	1903
115983906	2122	1655	2402	1937	1803	1903
115984066	2125	1669	2420	1937	1803	1903
115984226	2087	1649	2436	1937	1803	1903
115984386	2134	1651	2424	1937	1803	1903
115984546	2136	1638	2436	1937	1803	1903
115984706	2114	1618	2440	1937	1803	1903
115984866	2128	1642	2437	1937	1803	1903
115985026	2122	1653	2443	1937	1803	1903
115985186	2131	1667	2428	1937	1803	1903
115985346	2121	1665	2421	1937	1803	1903
115985506	2120	1668	2414	1937	1803	1903
115985666	2131	1648	2408	1937	1803	1903
115985826	2135	1653	2407	1937	1803	1903
115985986	2130	1663	2427	1937	1803	1903
115986146	2129	1665	2436	1937	1803	1903
115986306	2135	1669	2425	1937	1803	1903
115986466	2146	1665	2436	1937	1803	1903
115986626	2116	1668	2447	1937	1803	1903
115986786	2128	1654	2451	1937	1803	1903
115986946	2127	1657	2445	1937	1803	1903
115987106	2122	1663	2463	1937	1803	1903
115987266	2133	1659	2450	1937	1803	1903
115987426	2127	1658	2439	1937	1803	1903
115987586	2115	1672	2424	1937	1803	1903
115987746	2123	1655	2421	1937	1803	1903
115987906	2124	1662	2411	1937	1803	1903
115988066	2127	1674	2431	1937	1803	1903
115988226	2133	1650	2428	1937	1803	1903
115988386	2128	1660	2434	1937	1803	1903
115988546	2127	1656	2417	1937	1803	1903
115988706	2133	1650	2434	1937	1803	1903
115988866	2129	1645	2433	1937	1803	1903
115989026	2138	1633	2439	1937	1803	1903
115989186	2135	1658	2447	1937	1803	1903
115989346	2129	1642	2450	1937	1803	1903
115989506	2113	1651	2457	1937	1803	1903
115989666	2128	1655	2451	1937	1803	1903
115989826	2118	1656	2446	1937	1803	1903
115989986	2121	1652	2443	1937	1803	1903
115990146	2121	1659	2424	1937	1803	1903
115990306	2127	1664	2426	1937	1803	1903
115990466	2126	1642	2442	1937	1803	1903
115990626	2124	1644	2458	1937	1803	1903
115990786	2125	1651	2446	1937	1803	1903
115990946	2130	1642	2432	1937	1803	1903
115991106	2119	1647	2419	1937	1803	1903
115991266	2140	1656	2429	1937	1803	1903
115991426	2135	1650	2432	1937	1803	1903
115991586	2126	1648	2450	1937	1803	1903
115991746	2148	1657	2455	1937	1803	1903
115991906	2135	1662	2443	1937	1803	1903
115992066	2131	1646	2442	1937	1803	1903
115992226	2132	1659	2417	1937	1803	1903
115992386	2135	1639	2427	1937	1803	1903
115992546	2116	1648	2447	1937	1803	1903
115992706	2130	1647	2439	1937	1803	1903
115992866	2133	1663	2416	1937	1803	1903
115993026	2137	1668	2398	1937	1803	1903
115993186	2135	1646	2425	1937	1803	1903
115993346	2138	1642	2437	1937	1803	1903
115993506	2110	1653	2442	1937	1803	1903
115993666	2126	1655	2456	1937	1803	1903
115993826	2127	1660	2454	1937	1803	1903
115993986	2125	1653	2430	1937	1803	1903
115994146	2121	1654	2417	1937	1803	1903
115994306	2123	1645	2414	1937	1803	1903
115994466	2121	1652	2422	1937	1803	1903
115994626	2119	1654	2440	1937	1803	1903
115994786	2120	1639	2446	1937	1803	1903
115994946	2137	1671	2418	1937	1803	1903
115995106	2131	1660	2473	1937	1803	1903
115995266	2132	1651	2445	1937	1803	1903
115995426	2102	1647	2408	1937	1803	1903
115995586	2142	1641	2461	1937	1803	1903
115995746	2127	1654	2438	1937	1803	1903
115995906	2136	1629	2431	1937	1803	1903
115996066	2133	1671	2421	1937	1803	1903
115996226	2122	1637	2425	1937	1803	1903
115996386	2131	1659	2402	1937	1803	1903
115996546	2127	1661	2413	1937	1803	1903
115996706	2149	1612	2408	1937	1803	1903
115996866	2127	1638	2415	1937	1803	1903
115997026	2124	1642	2439	1937	1803	1903
115997186	2120	1646	2441	1937	1803	1903
115997346	2117	1628	2431	1937	1803	1903
115997506	2132	1647	2445	1937	1803	1903
115997666	2114	1646	2459	1937	1803	1903
115997826	2120	1649	2469	1937	1803	1903
115997986	2124	1646	2476	1937	1803	1903
115998146	2120	1643	2470	1937	1803	1903
115998306	2127	1644	2448	1937	1803	1903
115998466	2137	1643	2440	1937	1803	1903
115998626	2125	1661	2449	1937	1803	1903
115998786	2123	1660	2409	1937	1803	1903
115998946	2130	1676	2411	1937	1803	1903
115999106	2141	1669	2382	1937	1803	1903
115999266	2136	1662	2400	1937	1803	1903
115999426	2126	1645	2419	1937	1803	1903
115999586	2113	1643	2410	1937	1803	1903
115999746	2122	1670	2437	1937	1803	1903
115999906	2130	1671	2438	1937	1803	1903
116000066	2134	1644	2441	1937	1803	1903
116000226	2120	1653	2425	1937	1803	1903
116000386	2135	1645	2453	1937	1803	1903
116000546	2122	1651	2428	1937	1803	1903
116000707	2125	1648	2447	1937	1803	1903
116000866	2118	1651	2443	1937	1803	1903
116001026	2123	1660	2460	1937	1803	1903
116001186	2139	1651	2437	1937	1803	1903
116001346	2111	1651	2459	1937	1803	1903
116001506	2122	1661	2478	1937	1803	1903
116001666	2127	1655	2473	1937	1803	1903
116001826	2108	1649	2467	1937	1803	1903
116001986	2116	1659	2452	1937	1803	1903
116002146	2119	1667	2456	1937	1803	1903
116002306	2115	1660	2438	1937	1803	1903
116002466	2110	1673	2422	1937	1803	1903
116002626	2106	1662	2447	1937	1803	1903
116002786	2110	1654	2428	1937	1803	1903
116002946	2120	1661	2420	1937	1803	1903
116003106	2106	1671	2426	1937	1803	1903
116003266	2108	1647	2439	1937	1803	1903
116003426	2120	1678	2452	1937	1803	1903
116003586	2101	1659	2467	1937	1803	1903
116003746	2104	1664	2459	1937	1803	1903
116003906	2121	1646	2457	1937	1803	1903
116004066	2098	1649	2479	1937	1803	1903
116004226	2105	1667	2463	1937	1803	1903
116004386	2101	1656	2480	1937	1803	1903
116004546	2084	1670	2465	1937	1803	1903
116004706	2093	1659	2483	1937	1803	1903
116004866	2118	1662	2487	1937	1803	1903
116005026	2091	1656	2461	1937	1803	1903
116005186	2058	1712	2473	1937	1803	1903
116005346	2026	1689	2498	1937	1803	1903
116005506	2086	1687	2457	1937	1803	1903
116005666	2060	1658	2455	1937	1803	1903
116005826	2041	1648	2469	1937	1803	1903
116005986	2048	1642	2532	1937	1803	1903
116006146	1965	1674	2530	1937	1803	1903
116006306	2020	1667	2494	1937	1803	1903
116006467	2008	1687	2491	1937	1803	1903
116006626	2002	1671	2452	1937	1803	1903
116006786	2020	1628	2455	1937	1803	1903
116006946	1986	1615	2417	1937	1803	1903
116007106	1978	1588	2411	1937	1803	1903
116007266	1963	1594	2413	1937	1803	1903
116007426	1942	1599	2452	1937	1803	1903
116007586	1937	1596	2431	1937	1803	1903
116007746	1929	1640	2388	1937	1803	1903
116007906	1929	1626	2352	1937	1803	1903
116008066	1936	1639	2346	1937	1803	1903
116008226	1918	1607	2310	1937	1803	1903
116008386	1930	1610	2421	1937	1803	1903
116008546	1981	1602	2484	1937	1803	1903
116008706	1976	1505	2417	1937	1803	1903
116008866	1891	1440	2429	1937	1803	1903
116009026	1848	1472	2463	1937	1803	1903
116009186	1803	1552	2597	1937	1803	1903
116009346	1438	1776	2449	1937	1803	1903
116009506	1950	1639	2348	1937	1803	1903
116009666	1934	1672	2394	1937	1803	1903
116009826	1898	1593	2333	1937	1803	1903
116009986	1853	1494	2323	1937	1803	1903
116010146	1812	1452	2349	1937	1803	1903
116010306	1826	1323	2261	1937	1803	1903
116010466	1867	1187	2064	1937	1803	1903
116010626	1933	1101	1996	1937	1803	1903
116010786	1901	1018	2052	1937	1803	1903
116010946	1763	963	2088	1937	1803	1903
116011106	1685	839	2064	1937	1803	1903
116011266	1603	802	2081	1937	1803	1903
116011426	1768	864	2373	1937	1803	1903
116011586	1716	1037	2216	1937	1803	1903
116011746	1733	1070	1863	1937	1803	1903
116011906	1804	955	1786	1937	1803	1903
116012066	1798	923	1834	1937	1803	1903
116012226	1784	928	1883	1937	1803	1903
116012386	1762	953	1893	1937	1803	1903
116012546	1782	922	1932	1937	1803	1903
116012706	1811	895	1932	1937	1803	1903
116012866	1814	873	1913	1937	1803	1903
116013026	1851	865	1878	1937	1803	1903
116013186	1888	860	1842	1937	1803	1903
116013346	1906	894	1818	1937	1803	1903
116013506	1918	936	1786	1937	1803	1903
116013666	1961	975	1775	1937	1803	1903
116013826	1972	995	1766	1937	1803	1903
116013986	1959	1010	1762	1937	1803	1903
116014146	1936	994	1757	1937	1803	1903
116014306	1925	1008	1738	1937	1803	1903
116014466	1898	1014	1724	1937	1803	1903
116014626	1938	986	1725	1937	1803	1903
116014786	1938	1001	1688	1937	1803	1903
116014946	1953	999	1690	1937	1803	1903
116015106	1980	1004	1687	1937	1803	1903
116015266	2003	967	1703	1937	1803	1903
116015426	2022	967	1723	1937	1803	1903
116015586	2048	962	1722	1937	1803	1903
116015746	2046	951	1722	1937	1803	1903
116015906	2072	976	1711	1937	1803	1903
116016066	2067	996	1712	1937	1803	1903
116016226	2083	1046	1718	1937	1803	1903
116016386	2094	1064	1705	1937	1803	1903
116016546	2106	1088	1677	1937	1803	1903
116016706	2112	1120	1664	1937	1803	1903
116016866	2082	1147	1644	1937	1803	1903
116017026	2044	1169	1663	1937	1803	1903
116017186	1983	1288	1668	1937	1803	1903
116017346	1852	1486	1606	1937	1803	1903
116017506	1763	1555	1543	1937	1803	1903
116017666	1872	1316	1606	1937	1803	1903
116017826	2049	1014	1662	1937	1803	1903
116017986	2305	997	1743	1937	1803	1903
116018146	2106	1154	1844	1937	1803	1903
116018306	2053	1182	1806	1937	1803	1903
116018466	2055	1183	1721	1937	1803	1903
116018626	2027	1157	1646	1937	1803	1903
116018786	1975	1133	1656	1937	1803	1903
116018946	1952	1118	1677	1937	1803	1903
116019106	1909	1116	1715	1937	1803	1903
116019266	1916	1114	1774	1937	1803	1903
116019426	1895	1144	1801	1937	1803	1903
116019586	1930	1136	1789	1937	1803	1903
116019746	1954	1203	1758	1937	1803	1903
116019906	1948	1207	1714	1937	1803	1903
116020066	1962	1235	1688	1937	1803	1903
116020226	1964	1259	1678	1937	1803	1903
116020386	1918	1264	1708	1937	1803	1903
116020546	1864	1258	1728	1937	1803	1903
116020706	1830	1237	1703	1937	1803	1903
116020866	1787	1176	1699	1937	1803	1903
116021026	1822	1108	1676	1937	1803	1903
116021186	1841	1050	1652	1937	1803	1903
116021346	1899	958	1629	1937	1803	1903
116021506	1856	874	1602	1937	1803	1903
116021666	1745	857	1561	1937	1803	1903
116021826	1692	749	1644	1937	1803	1903
116021986	1582	795	1788	1937	1803	1903
116022146	1591	890	1711	1937	1803	1903
116022306	1524	926	1718	1937	1803	1903
116022466	1521	946	1761	1937	1803	1903
116022626	1520	999	1760	1937	1803	1903
116022786	1546	1106	1741	1937	1803	1903
116022946	1550	1207	1744	1937	1803	1903
116023106	1561	1301	1745	1937	1803	1903
116023266	1578	1349	1722	1937	1803	1903
116023426	1570	1378	1722	1937	1803	1903
116023586	1580	1375	1727	1937	1803	1903
116023746	1539	1367	1719	1937	1803	1903
116023906	1463	1370	1760	1937	1803	1903
116024066	1419	1332	1781	1937	1803	1903
116024226	1396	1282	1800	1937	1803	1903
116024386	1360	1257	1822	1937	1803	1903
116024546	1367	1244	1837	1937	1803	1903
116024706	1363	1239	1837	1937	1803	1903
116024866	1352	1229	1857	1937	1803	1903
116025026	1338	1216	1862	1937	1803	1903
116025186	1367	1189	1871	1937	1803	1903
116025346	1340	1239	1898	1937	1803	1903
116025506	1299	1272	1934	1937	1803	1903
116025666	1299	1314	1932	1937	1803	1903
116025826	1287	1355	1965	1937	1803	1903
116025986	1277	1390	1967	1937	1803	1903
116026146	1256	1382	1950	1937	1803	1903
116026306	1289	1367	1937	1937	1803	1903
116026466	1285	1365	1959	1937	1803	1903
116026626	1311	1405	1955	1937	1803	1903
116026786	1323	1421	1947	1937	1803	1903
116026946	1336	1448	1934	1937	1803	1903
116027106	1366	1426	1923	1937	1803	1903
116027266	1370	1408	1911	1937	1803	1903
116027426	1411	1387	1913	1937	1803	1903
116027586	1390	1384	1933	1937	1803	1903
116027746	1401	1366	1931	1937	1803	1903
116027906	1370	1333	1899	1937	1803	1903
116028066	1293	1382	1879	1937	1803	1903
116028226	1191	1297	1775	1937	1803	1903
116028386	1276	902	2083	1937	1803	1903
116028546	1349	741	2122	1937	1803	1903
116028706	1462	692	1988	1937	1803	1903
116028866	1546	781	1910	1937	1803	1903
116029026	1569	915	1885	1937	1803	1903
116029186	1556	1048	1867	1937	1803	1903
116029346	1509	1124	1894	1937	1803	1903
116029506	1493	1173	1892	1937	1803	1903
116029666	1462	1234	1892	1937	1803	1903
116029826	1485	1266	1897	1937	1803	1903
116029986	1541	1276	1866	1937	1803	1903
116030146	1555	1260	1873	1937	1803	1903
116030306	1612	1229	1847	1937	1803	1903
116030466	1651	1245	1828	1937	1803	1903
116030626	1657	1188	1824	1937	1803	1903
116030786	1681	1176	1836	1937	1803	1903
116030946	1690	1107	1913	1937	1803	1903
116031106	1642	1086	1854	1937	1803	1903
116031266	1632	1065	1858	1937	1803	1903
116031426	1634	1078	1861	1937	1803	1903
116031586	1605	1150	1840	1937	1803	1903
116031746	1620	1193	1854	1937	1803	1903
116031906	1416	1329	1848	1937	1803	1903
116032066	1126	1413	2019	1937	1803	1903
116032226	1469	1312	2037	1937	1803	1903
116032386	1659	1274	1822	1937	1803	1903
116032546	1729	1335	1721	1937	1803	1903
116032706	1758	1310	1751	1937	1803	1903
116032866	1737	1233	1795	1937	1803	1903
116033026	1744	1183	1759	1937	1803	1903
116033186	1796	1142	1701	1937	1803	1903
116033346	1841	1106	1672	1937	1803	1903
116033506	1866	1065	1659	1937	1803	1903
116033666	1890	1082	1663	1937	1803	1903
116033826	1887	1076	1656	1937	1803	1903
116033986	1884	1093	1642	1937	1803	1903
116034146	1845	1115	1644	1937	1803	1903
116034306	1820	1124	1667	1937	1803	1903
116034466	1795	1119	1688	1937	1803	1903
116034626	1787	1107	1710	1937	1803	1903
116034786	1769	1069	1708	1937	1803	1903
116034946	1765	1036	1745	1937	1803	1903
116035106	1734	992	1726	1937	1803	1903
116035266	1763	980	1726	1937	1803	1903
116035426	1802	979	1710	1937	1803	1903
116035586	1828	975	1693	1937	1803	1903
116035746	1867	1001	1675	1937	1803	1903
116035906	1875	1037	1662	1937	1803	1903
116036066	1882	1066	1657	1937	1803	1903
116036226	1890	1118	1641	1937	1803	1903
116036386	1916	1189	1615	1937	1803	1903
116036546	1941	1252	1608	1937	1803	1903
116036706	1944	1284	1583	1937	1803	1903
116036866	1936	1275	1582	1937	1803	1903
116037026	1930	1250	1614	1937	1803	1903
116037186	1952	1218	1605	1937	1803	1903
116037346	1957	1201	1635	1937	1803	1903
116037506	1949	1120	1644	1937	1803	1903
116037666	1967	1059	1627	1937	1803	1903
116037826	1949	1018	1653	1937	1803	1903
116037986	1477	21	2725	1937	1803	1903
116038146	2324	687	2314	1937	1803	1903
116038306	2036	1359	2052	1937	1803	1903
116038466	1782	897	1746	1937	1803	1903
116038626	1962	1467	2181	1937	1803	1903
116038786	1954	1427	2953	1937	1803	1903
116038946	2005	1251	1546	1937	1803	1903
116039106	1870	1202	1681	1937	1803	1903
116039266	1904	1183	1751	1937	1803	1903
116039426	1896	1192	1760	1937	1803	1903
116039586	1880	1204	1745	1937	1803	1903
116039746	1878	1173	1748	1937	1803	1903
116039906	1869	1190	1726	1937	1803	1903
116040066	1848	1196	1716	1937	1803	1903
116040226	1848	1182	1716	1937	1803	1903
116040386	1836	1184	1674	1937	1803	1903
116040546	1850	1179	1673	1937	1803	1903
116040706	1939	1165	1709	1937	1803	1903
116040867	1882	1187	1675	1937	1803	1903
116041026	1794	1198	1847	1937	1803	1903
116041186	1967	1163	1701	1937	1803	1903
116041346	1955	1152	1616	1937	1803	1903
116041506	1971	1171	1629	1937	1803	1903
116041666	1957	1205	1640	1937	1803	1903
116041826	1948	1177	1671	1937	1803	1903
116041986	1923	1159	1684	1937	1803	1903
116042146	1930	1211	1655	1937	1803	1903
116042306	1819	1185	1771	1937	1803	1903
116042466	1942	1171	1787	1937	1803	1903
116042626	1910	1187	1740	1937	1803	1903
116042786	1918	1194	1757	1937	1803	1903
116042946	1893	1183	1751	1937	1803	1903
116043106	1941	1158	1725	1937	1803	1903
116043266	1926	1151	1738	1937	1803	1903
116043426	1945	1144	1719	1937	1803	1903
116043586	1927	1159	1746	1937	1803	1903
116043746	1769	903	1918	1937	1803	1903
116043906	1759	1005	1756	1937	1803	1903
116044066	1707	1003	1739	1937	1803	1903
116044226	1861	996	1667	1937	1803	1903
116044386	1950	1092	1682	1937	1803	1903
116044546	2078	1034	1599	1937	1803	1903
116044706	2101	1105	1716	1937	1803	1903
116044866	2071	1142	1698	1937	1803	1903
116045026	1992	1169	1721	1937	1803	1903
116045186	1951	1124	1724	1937	1803	1903
116045346	1866	1089	1763	1937	1803	1903
116045506	1792	1081	1784	1937	1803	1903
116045666	1783	1110	1803	1937	1803	1903
116045826	1759	1170	1821	1937	1803	1903
116045986	1762	1227	1807	1937	1803	1903
116046146	1759	1295	1806	1937	1803	1903
116046306	1783	1326	1813	1937	1803	1903
116046466	1751	1371	1819	1937	1803	1903
116046626	1755	1436	1806	1937	1803	1903
116046786	1740	1495	1774	1937	1803	1903
116046946	1770	1534	1776	1937	1803	1903
116047106	1766	1529	1781	1937	1803	1903
116047266	1753	1513	1794	1937	1803	1903
116047426	1741	1464	1814	1937	1803	1903
116047586	1716	1407	1837	1937	1803	1903
116047746	1704	1358	1846	1937	1803	1903
116047906	1713	1281	1847	1937	1803	1903
116048066	1734	1233	1853	1937	1803	1903
116048226	1737	1211	1810	1937	1803	1903
116048386	1753	1201	1745	1937	1803	1903
116048546	1737	1228	1781	1937	1803	1903
116048706	1742	1189	1778	1937	1803	1903
116048866	1769	1138	1805	1937	1803	1903
116049026	1786	1143	1815	1937	1803	1903
116049186	1815	1157	1764	1937	1803	1903
116049346	1915	1226	2284	1937	1803	1903
116049506	1847	1150	1667	1937	1803	1903
116049666	1827	1174	1667	1937	1803	1903
116049826	1814	1095	1819	1937	1803	1903
116049986	1790	1164	1735	1937	1803	1903
116050146	1770	1184	1739	1937	1803	1903
116050306	1754	1201	1819	1937	1803	1903
116050466	1719	1207	1833	1937	1803	1903
116050626	1724	1190	1844	1937	1803	1903
116050786	1730	1183	1847	1937	1803	1903
116050946	1718	1184	1852	1937	1803	1903
116051106	1712	1180	1884	1937	1803	1903
116051266	1739	1190	1849	1937	1803	1903
116051426	1708	1308	2004	1937	1803	1903
116051586	2000	1209	1976	1937	1803	1903
116051746	1852	1168	1800	1937	1803	1903
116051906	1838	1214	1812	1937	1803	1903
116052066	1848	1250	1780	1937	1803	1903
116052226	1886	1166	1736	1937	1803	1903
116052386	2020	1078	1830	1937	1803	1903
116052546	1867	1190	1777	1937	1803	1903
116052706	1816	1162	1441	1937	1803	1903
116052866	1846	1268	1821	1937	1803	1903
116053026	1834	1304	1699	1937	1803	1903
116053186	1854	1204	1727	1937	1803	1903
116053346	1941	1294	1767	1937	1803	1903
116053506	1902	1165	1746	1937	1803	1903
116053666	1910	1126	1764	1937	1803	1903
116053826	1860	1143	1801	1937	1803	1903
116053986	1865	1123	1827	1937	1803	1903
116054146	1884	1146	1844	1937	1803	1903
116054306	1920	1200	1874	1937	1803	1903
116054466	1861	1130	1676	1937	1803	1903
116054626	1858	1107	1837	1937	1803	1903
116054786	1858	1065	2184	1937	1803	1903
116054946	2001	1281	1240	1937	1803	1903
116055106	1964	1152	2005	1937	1803	1903
116055266	1927	1202	1462	1937	1803	1903
116055426	2019	1142	2166	1937	1803	1903
116055586	1981	1206	2310	1937	1803	1903
116055746	1941	1113	1775	1937	1803	1903
116055906	1861	1160	1765	1937	1803	1903
116056066	1877	1212	1859	1937	1803	1903
116056226	1832	1258	1846	1937	1803	1903
116056386	1829	1241	1860	1937	1803	1903
116056546	1832	1226	1907	1937	1803	1903
116056706	1815	1227	1883	1937	1803	1903
116056866	1812	1226	1896	1937	1803	1903
116057026	1828	1208	1904	1937	1803	1903
116057186	1838	1209	1915	1937	1803	1903
116057346	1826	1184	1895	1937	1803	1903
116057506	1866	1190	1887	1937	1803	1903
116057666	1873	1223	1875	1937	1803	1903
116057826	1842	1285	1885	1937	1803	1903
116057986	1841	1324	1864	1937	1803	1903
116058146	1825	1346	1862	1937	1803	1903
116058306	1837	1356	1869	1937	1803	1903
116058466	1836	1394	1870	1937	1803	1903
116058626	1848	1411	1849	1937	1803	1903
116058786	1863	1426	1826	1937	1803	1903
116058946	1196	1374	2856	1937	1803	1903
116059106	2172	1620	3195	1937	1803	1903
116059266	1591	1439	2716	1937	1803	1903
116059426	2350	1158	1974	1937	1803	1903
116059586	1995	1127	1854	1937	1803	1903
116059746	1958	1202	1855	1937	1803	1903
116059906	1942	1201	1844	1937	1803	1903
116060066	1943	1190	1818	1937	1803	1903
116060226	1903	1534	1583	1937	1803	1903
116060386	2262	1306	1662	1937	1803	1903
116060546	2075	1042	1702	1937	1803	1903
116060706	1966	1344	1684	1937	1803	1903
116060866	1970	1524	1823	1937	1803	1903
116061026	2299	2056	1369	1937	1803	1903
116061186	2020	1911	1619	1937	1803	1903
116061346	2166	2126	4068	1937	1803	1903
116061506	2213	1180	802	1937	1803	1903
116061666	1921	1700	1849	1937	1803	1903
116061826	1867	1623	1563	1937	1803	1903
116061986	1969	693	2078	1937	1803	1903
116062146	1638	1192	2017	1937	1803	1903
116062306	1720	1464	1667	1937	1803	1903
116062466	1951	1112	1684	1937	1803	1903
116062626	1905	1125	1608	1937	1803	1903
116062786	1899	1215	1710	1937	1803	1903
116062946	1968	1176	1751	1937	1803	1903
116063106	1970	1208	1781	1937	1803	1903
116063266	1993	1200	1789	1937	1803	1903
116063426	1975	1220	1802	1937	1803	1903
116063586	1975	1222	1797	1937	1803	1903
116063746	1966	1212	1784	1937	1803	1903
116063906	1976	1192	1723	1937	1803	1903
116064066	1953	1093	1731	1937	1803	1903
116064226	1981	1194	1729	1937	1803	1903
116064386	2002	1241	1723	1937	1803	1903
116064546	2002	1188	1735	1937	1803	1903
