Shimmer1	Shimmer1	Shimmer1	Shimmer1
Timestamp	Accelerometer X*	Accelerometer Y*	Accelerometer Z*
uncalibrated	uncalibrated	uncalibrated	uncalibrated
no units	no units	no units	no units
93331138	931	2160	1662
93331298	939	2159	1654
93331458	958	2158	1659
93331618	958	2154	1657
93331778	949	2158	1655
93331938	957	2152	1664
93332098	950	2163	1659
93332258	949	2149	1666
93332418	950	2158	1663
93332578	947	2141	1670
93332738	948	2138	1653
93332898	950	2149	1654
93333058	943	2153	1670
93333218	957	2148	1659
93333378	960	2152	1656
93333538	950	2154	1663
93333698	958	2148	1668
93333858	953	2144	1655
93334018	953	2156	1655
93334178	957	2152	1661
93334338	957	2164	1667
93334498	948	2145	1655
93334658	952	2155	1657
93334818	957	2161	1667
93334978	940	2143	1663
93335138	938	2157	1668
93335298	952	2145	1670
93335458	952	2143	1653
93335618	955	2151	1673
93335778	951	2149	1655
93335938	948	2163	1678
93336098	945	2150	1667
93336258	945	2152	1661
93336418	962	2152	1653
93336578	943	2143	1654
93336738	941	2149	1662
93336898	950	2157	1673
93337058	950	2169	1660
93337218	944	2147	1665
93337378	946	2150	1666
93337538	961	2172	1666
93337698	949	2155	1665
93337858	947	2157	1663
93338018	949	2149	1644
93338178	951	2144	1667
93338338	945	2142	1645
93338498	933	2163	1666
93338658	948	2153	1653
93338818	951	2146	1659
93338978	959	2146	1654
93339138	942	2145	1655
93339298	958	2140	1660
93339458	951	2158	1652
93339618	939	2158	1669
93339778	948	2151	1650
93339938	945	2148	1669
93340098	938	2137	1673
93340258	940	2160	1647
93340418	957	2156	1672
93340578	927	2152	1669
93340738	947	2135	1646
93340898	954	2161	1665
93341058	942	2153	1671
93341218	938	2162	1659
93341378	955	2157	1642
93341538	946	2154	1659
93341698	944	2158	1661
93341858	948	2148	1655
93342018	955	2153	1662
93342178	948	2150	1656
93342338	939	2144	1660
93342498	961	2157	1654
93342658	946	2162	1667
93342818	959	2163	1638
93342978	949	2146	1668
93343138	932	2148	1666
93343298	954	2142	1657
93343458	942	2159	1672
93343618	957	2162	1665
93343778	959	2152	1651
93343938	960	2151	1660
93344098	971	2153	1665
93344258	943	2161	1663
93344418	957	2146	1665
93344578	943	2157	1671
93344738	951	2165	1660
93344898	949	2161	1664
93345058	942	2144	1657
93345218	955	2151	1666
93345378	956	2149	1674
93345538	960	2147	1651
93345698	962	2166	1655
93345858	945	2152	1666
93346018	947	2154	1656
93346178	959	2159	1666
93346338	948	2170	1664
93346498	959	2144	1671
93346658	944	2141	1661
93346818	966	2150	1666
93346978	951	2159	1666
93347138	948	2147	1668
93347298	950	2140	1667
93347458	958	2154	1674
93347618	948	2161	1660
93347778	954	2166	1647
93347938	959	2131	1659
93348098	951	2144	1657
93348258	937	2140	1668
93348418	957	2162	1654
93348578	937	2155	1660
93348738	950	2156	1651
93348898	947	2149	1659
93349058	949	2171	1661
93349218	956	2151	1673
93349378	945	2164	1666
93349538	955	2148	1661
93349698	969	2161	1663
93349858	952	2142	1670
93350018	958	2161	1671
93350178	949	2150	1655
93350338	948	2155	1667
93350498	949	2166	1669
93350658	951	2172	1664
93350818	945	2148	1655
93350978	958	2153	1659
93351138	950	2148	1665
93351298	945	2163	1664
93351458	936	2159	1658
93351618	952	2150	1650
93351778	945	2157	1660
93351938	973	2155	1648
93352098	939	2151	1657
93352258	946	2152	1659
93352418	942	2154	1664
93352578	956	2164	1652
93352738	953	2156	1656
93352898	942	2143	1646
93353058	965	2149	1676
93353218	940	2144	1669
93353378	943	2150	1653
93353538	962	2167	1661
93353698	956	2147	1670
93353858	955	2141	1657
93354018	968	2175	1677
93354178	943	2147	1657
93354338	953	2148	1652
93354498	954	2150	1674
93354658	939	2158	1685
93354818	959	2154	1633
93354978	937	2152	1666
93355138	957	2154	1652
93355298	939	2140	1657
93355458	953	2162	1655
93355618	974	2158	1692
93355778	940	2153	1662
93355938	956	2157	1657
93356098	949	2155	1662
93356258	941	2162	1663
93356418	975	2203	1706
93356578	937	2156	1668
93356738	942	2164	1646
93356898	956	2099	1606
93357058	958	2157	1658
93357218	954	2149	1658
93357378	968	2154	1657
93357538	918	2144	1674
93357698	947	2140	1665
93357858	928	2152	1651
93358018	948	2145	1642
93358178	946	2153	1655
93358338	946	2154	1662
93358498	937	2121	1696
93358658	954	2170	1672
93358818	953	2147	1662
93358978	935	2150	1611
93359138	959	2148	1664
93359298	959	2155	1659
93359458	956	2155	1654
93359618	969	2127	1647
93359778	943	2161	1678
93359938	940	2149	1666
93360098	995	2147	1666
93360258	904	2151	1656
93360418	958	2144	1662
93360578	951	2142	1657
93360738	918	2135	1659
93360898	970	2140	1683
93361058	940	2144	1657
93361218	948	2159	1663
93361378	953	2154	1662
93361538	954	2165	1669
93361698	947	2150	1657
93361858	949	2146	1658
93362018	939	2148	1664
93362178	943	2146	1661
93362338	945	2152	1655
93362498	950	2156	1660
93362658	958	2157	1652
93362818	964	2154	1665
93362978	944	2151	1662
93363138	944	2136	1658
93363298	945	2161	1673
93363458	944	2144	1651
93363618	953	2146	1669
93363778	946	2155	1657
93363938	936	2152	1681
93364098	943	2161	1664
93364258	946	2157	1659
93364418	959	2139	1667
93364578	953	2145	1656
93364738	963	2152	1662
93364898	961	2149	1665
93365058	938	2153	1667
93365218	955	2139	1656
93365378	948	2160	1664
93365538	948	2152	1665
93365698	935	2148	1673
93365858	960	2161	1675
93366018	951	2155	1660
93366178	950	2167	1654
93366338	945	2147	1660
93366498	958	2164	1657
93366658	944	2150	1662
93366818	957	2161	1659
93366978	946	2155	1665
93367138	941	2153	1679
93367298	945	2154	1667
93367458	944	2170	1672
93367618	952	2147	1670
93367778	955	2160	1655
93367938	958	2153	1663
93368098	946	2164	1663
93368258	939	2150	1663
93368418	958	2148	1653
93368578	945	2151	1667
93368738	962	2148	1647
93368898	958	2144	1659
93369058	939	2158	1674
93369218	955	2152	1656
93369378	949	2148	1668
93369538	952	2148	1664
93369698	956	2158	1674
93369858	960	2155	1657
93370018	937	2158	1663
93370178	954	2151	1659
93370338	942	2154	1660
93370498	957	2165	1669
93370658	945	2151	1665
93370818	943	2156	1669
93370978	946	2161	1659
93371138	957	2157	1669
93371298	949	2152	1657
93371458	955	2160	1664
93371618	954	2155	1663
93371778	948	2152	1669
93371938	947	2157	1662
93372098	931	2171	1663
93372258	963	2149	1668
93372418	934	2126	1634
93372578	950	2166	1667
93372738	934	2149	1663
93372898	983	2162	1659
93373058	967	2159	1631
93373218	952	2161	1656
93373378	957	2155	1660
93373538	979	2207	1640
93373698	942	2160	1640
93373858	948	2165	1666
93374018	944	2156	1654
93374178	937	2126	1580
93374338	940	2171	1660
93374498	951	2150	1676
93374658	941	2153	1665
93374818	938	2143	1656
93374978	955	2146	1659
93375138	948	2148	1656
93375298	965	2154	1655
93375458	954	2142	1654
93375618	960	2157	1663
93375778	938	2162	1666
93375938	949	2156	1658
93376098	948	2163	1655
93376258	965	2144	1654
93376418	953	2150	1662
93376578	950	2158	1666
93376738	944	2149	1673
93376898	953	2154	1655
93377058	955	2144	1674
93377218	950	2164	1656
93377378	948	2162	1673
93377538	946	2148	1661
93377698	962	2149	1672
93377858	958	2152	1660
93378018	946	2137	1643
93378178	946	2163	1664
93378338	938	2158	1671
93378498	951	2157	1664
93378658	958	2168	1674
93378818	953	2164	1681
93378978	952	2146	1660
93379138	971	2147	1665
93379298	953	2146	1670
93379458	946	2150	1665
93379618	937	2159	1655
93379778	963	2154	1664
93379938	940	2147	1664
93380098	955	2142	1657
93380258	950	2153	1658
93380418	950	2146	1668
93380578	946	2145	1653
93380738	950	2160	1659
93380898	944	2165	1664
93381058	941	2157	1652
93381218	958	2146	1666
93381378	955	2152	1661
93381538	945	2150	1664
93381698	952	2148	1665
93381858	954	2145	1665
93382018	942	2143	1652
93382178	944	2157	1657
93382338	946	2157	1667
93382498	959	2147	1663
93382658	965	2153	1650
93382818	953	2148	1667
93382978	938	2143	1661
93383138	947	2147	1663
93383298	947	2140	1656
93383458	955	2148	1653
93383618	960	2155	1661
93383778	963	2148	1666
93383938	948	2147	1662
93384098	955	2149	1650
93384258	942	2157	1660
93384418	949	2161	1659
93384578	947	2161	1666
93384738	957	2150	1668
93384898	955	2165	1671
93385058	939	2157	1668
93385218	946	2160	1659
93385378	938	2160	1669
93385538	952	2139	1660
93385698	949	2141	1673
93385858	950	2146	1678
93386018	951	2153	1664
93386178	939	2155	1667
93386338	944	2148	1667
93386498	948	2153	1645
93386658	948	2146	1656
93386818	951	2153	1657
93386978	959	2140	1660
93387138	959	2149	1657
93387298	955	2151	1671
93387458	949	2163	1662
93387618	946	2144	1648
93387778	961	2159	1669
93387938	946	2162	1670
93388098	948	2167	1662
93388258	941	2155	1645
93388418	950	2158	1655
93388578	953	2157	1677
93388738	939	2156	1666
93388898	956	2158	1658
93389058	954	2141	1658
93389218	951	2155	1661
93389378	962	2162	1655
93389538	951	2163	1660
93389698	963	2146	1659
93389858	956	2144	1658
93390018	948	2140	1658
93390178	949	2160	1668
93390338	948	2153	1647
93390498	951	2145	1661
93390658	956	2170	1659
93390818	956	2150	1668
93390978	949	2155	1653
93391138	957	2145	1645
93391298	949	2164	1653
93391458	948	2150	1665
93391618	961	2154	1663
93391778	948	2166	1665
93391938	958	2161	1667
93392098	963	2140	1665
93392258	943	2148	1677
93392418	951	2143	1660
93392578	944	2170	1675
93392738	948	2153	1667
93392898	925	2140	1675
93393058	958	2156	1677
93393218	935	2161	1661
93393378	965	2155	1666
93393538	953	2158	1629
93393698	945	2144	1656
93393858	947	2139	1654
93394018	918	2138	1635
93394178	950	2152	1656
93394338	951	2139	1655
93394498	940	2154	1663
93394658	970	2181	1709
93394818	955	2148	1642
93394978	950	2145	1665
93395138	938	2152	1648
93395298	952	2147	1673
93395458	941	2160	1657
93395618	946	2162	1663
93395778	956	2146	1671
93395938	950	2159	1671
93396098	940	2158	1662
93396258	943	2147	1671
93396418	946	2143	1651
93396578	949	2165	1671
93396738	958	2158	1662
93396898	951	2164	1674
93397058	952	2155	1667
93397218	950	2144	1660
93397378	938	2147	1646
93397538	949	2145	1649
93397698	951	2159	1657
93397858	944	2159	1663
93398018	955	2157	1663
93398178	947	2144	1676
93398338	942	2151	1657
93398498	956	2154	1646
93398658	952	2132	1666
93398818	943	2151	1660
93398978	944	2142	1674
93399138	941	2151	1668
93399298	951	2151	1665
93399458	958	2149	1673
93399618	953	2151	1657
93399778	965	2157	1665
93399938	950	2160	1650
93400098	939	2146	1666
93400258	931	2141	1657
93400418	942	2144	1657
93400578	945	2146	1656
93400738	964	2153	1659
93400898	948	2166	1668
93401058	946	2156	1653
93401218	947	2148	1658
93401378	947	2152	1660
93401538	947	2149	1659
93401698	959	2148	1658
93401858	947	2151	1669
93402018	946	2147	1665
93402178	947	2159	1655
93402338	952	2148	1641
93402498	953	2143	1663
93402658	959	2144	1667
93402818	952	2152	1668
93402978	950	2157	1651
93403138	952	2155	1670
93403298	951	2163	1667
93403458	941	2152	1657
93403618	955	2154	1649
93403778	964	2159	1650
93403938	955	2159	1661
93404098	952	2165	1662
93404258	961	2157	1662
93404418	949	2152	1650
93404578	961	2152	1670
93404738	948	2147	1664
93404898	956	2157	1659
93405058	953	2145	1653
93405218	944	2142	1660
93405378	960	2140	1670
93405538	945	2140	1663
93405698	954	2144	1676
93405858	946	2157	1651
93406018	946	2152	1666
93406178	940	2147	1664
93406338	952	2157	1669
93406498	956	2142	1677
93406658	943	2147	1663
93406818	940	2160	1665
93406978	942	2152	1673
93407138	940	2152	1668
93407298	952	2154	1675
93407458	946	2150	1672
93407618	951	2153	1664
93407778	942	2156	1653
93407938	946	2144	1655
93408098	951	2164	1667
93408258	958	2137	1658
93408418	959	2158	1663
93408578	953	2155	1661
93408738	952	2155	1657
93408898	946	2147	1663
93409058	950	2154	1675
93409218	966	2160	1651
93409378	954	2172	1660
93409538	944	2145	1660
93409698	945	2151	1661
93409858	933	2158	1662
93410018	952	2161	1662
93410178	948	2151	1653
93410338	946	2154	1652
93410498	952	2159	1674
93410658	951	2139	1657
93410818	951	2151	1656
93410978	952	2137	1661
93411138	961	2149	1662
93411298	953	2145	1661
93411458	952	2156	1664
93411618	950	2149	1656
93411778	945	2172	1675
93411938	949	2149	1652
93412098	935	2164	1653
93412258	945	2160	1662
93412418	955	2147	1652
93412578	950	2162	1667
93412738	955	2145	1666
93412898	948	2160	1667
93413058	940	2148	1654
93413218	954	2151	1655
93413378	980	2163	1627
93413538	951	2144	1655
93413698	953	2151	1679
93413858	929	2160	1640
93414018	1030	2194	1646
93414178	949	2148	1680
93414338	944	2150	1667
93414498	932	2132	1665
93414658	943	2124	1672
93414818	950	2169	1650
93414978	960	2159	1666
93415138	966	2194	1679
93415298	955	2158	1642
93415458	972	2173	1653
93415618	930	2122	1622
93415778	878	2132	1609
93415938	934	2158	1615
93416098	967	2152	1676
93416258	965	2164	1670
93416418	952	2138	1673
93416578	964	2158	1675
93416738	940	2151	1667
93416898	948	2158	1659
93417058	940	2165	1678
93417218	954	2146	1670
93417378	948	2143	1662
93417538	957	2159	1662
93417698	951	2166	1666
93417858	951	2149	1656
93418018	949	2161	1659
93418178	956	2146	1654
93418338	952	2163	1660
93418498	946	2162	1657
93418658	949	2142	1653
93418818	961	2154	1679
93418978	943	2155	1661
93419138	958	2138	1657
93419298	949	2157	1656
93419458	952	2150	1662
93419618	946	2150	1661
93419778	951	2158	1666
93419938	958	2150	1665
93420098	956	2142	1668
93420258	954	2145	1656
93420418	939	2153	1651
93420578	955	2147	1662
93420738	951	2161	1678
93420898	943	2151	1656
93421058	963	2143	1655
93421218	948	2154	1665
93421378	945	2148	1650
93421538	942	2170	1667
93421698	950	2155	1656
93421858	938	2146	1663
93422018	956	2141	1659
93422178	960	2152	1665
93422338	959	2142	1668
93422498	944	2144	1672
93422658	949	2152	1666
93422818	949	2156	1665
93422978	949	2145	1681
93423138	950	2161	1664
93423298	941	2162	1658
93423458	958	2156	1655
93423618	960	2148	1656
93423778	948	2155	1665
93423938	949	2142	1663
93424098	949	2165	1671
93424258	953	2153	1669
93424418	957	2158	1651
93424578	945	2141	1652
93424738	955	2157	1645
93424898	956	2146	1663
93425058	955	2147	1655
93425218	941	2152	1662
93425378	952	2152	1664
93425538	943	2144	1673
93425698	953	2155	1667
93425858	941	2148	1666
93426018	937	2149	1646
93426178	957	2154	1660
93426338	948	2157	1672
93426498	954	2157	1664
93426658	949	2144	1658
93426818	960	2153	1667
93426978	938	2156	1653
93427138	961	2159	1668
93427298	948	2150	1674
93427458	960	2152	1657
93427618	953	2154	1657
93427778	960	2149	1668
93427938	937	2158	1651
93428098	957	2147	1656
93428258	953	2150	1662
93428418	960	2141	1668
93428578	930	2147	1661
93428738	950	2148	1647
93428898	950	2152	1671
93429058	948	2166	1650
93429218	950	2156	1662
93429378	936	2160	1651
93429538	957	2152	1668
93429698	939	2156	1660
93429858	947	2154	1664
93430018	957	2156	1659
93430178	959	2158	1663
93430338	942	2155	1666
93430498	944	2150	1676
93430658	958	2172	1655
93430818	945	2143	1659
93430978	947	2154	1650
93431138	940	2158	1674
93431298	967	2146	1655
93431458	941	2140	1665
93431618	928	2150	1667
93431778	955	2162	1665
93431938	962	2165	1682
93432098	941	2153	1662
93432258	953	2160	1659
93432418	954	2155	1653
93432578	949	2154	1659
93432738	955	2158	1676
93432898	949	2149	1669
93433058	960	2151	1669
93433218	957	2147	1650
93433378	947	2149	1668
93433538	960	2143	1677
93433698	941	2151	1665
93433858	932	2103	1639
93434018	951	2144	1651
93434178	955	2137	1651
93434338	951	2150	1674
93434498	959	2171	1656
93434658	940	2157	1655
93434818	936	2149	1673
93434978	947	2155	1658
93435138	965	2146	1684
93435298	948	2144	1666
93435458	944	2157	1674
93435618	919	2144	1618
93435778	942	2130	1695
93435938	941	2149	1654
93436098	948	2166	1660
93436258	950	2138	1676
93436418	945	2155	1661
93436578	949	2159	1676
93436738	947	2154	1653
93436898	949	2152	1668
93437058	953	2149	1654
93437218	951	2154	1663
93437378	960	2156	1655
93437538	948	2155	1665
93437698	945	2152	1661
93437858	953	2155	1665
93438018	953	2149	1649
93438178	951	2158	1665
93438338	949	2155	1662
93438498	963	2155	1664
93438658	938	2162	1676
93438818	937	2167	1674
93438978	939	2155	1664
93439138	956	2159	1664
93439298	949	2155	1663
93439458	954	2149	1655
93439618	959	2158	1664
93439778	949	2148	1653
93439938	936	2151	1659
93440098	941	2159	1663
93440258	940	2158	1655
93440418	956	2154	1663
93440578	946	2154	1665
93440738	954	2159	1656
93440898	942	2145	1665
93441058	961	2140	1668
93441218	945	2157	1669
93441378	944	2163	1660
93441538	946	2160	1676
93441698	961	2163	1648
93441858	953	2145	1667
93442018	934	2153	1651
93442178	946	2162	1664
93442338	954	2157	1665
93442498	951	2159	1661
93442658	948	2152	1669
93442818	946	2135	1662
93442978	961	2152	1659
93443138	953	2163	1671
93443298	939	2154	1652
93443458	964	2136	1667
93443618	943	2153	1668
93443778	943	2144	1662
93443938	952	2148	1654
93444098	948	2141	1656
93444258	951	2139	1678
93444418	949	2154	1651
93444578	949	2158	1668
93444738	949	2145	1649
93444898	953	2159	1649
93445058	947	2144	1661
93445218	954	2154	1670
93445378	949	2156	1655
93445538	953	2148	1663
93445698	942	2146	1652
93445858	955	2161	1663
93446018	959	2153	1669
93446178	944	2148	1645
93446338	944	2160	1656
93446498	946	2159	1663
93446658	956	2166	1666
93446818	931	2152	1660
93446978	954	2153	1674
93447138	949	2143	1675
93447298	950	2146	1648
93447458	951	2161	1668
93447618	953	2151	1659
93447778	951	2155	1650
93447938	944	2163	1657
93448098	952	2150	1663
93448258	954	2156	1656
93448418	945	2151	1675
93448578	951	2142	1662
93448738	957	2149	1671
93448898	952	2159	1668
93449058	940	2162	1670
93449218	941	2158	1667
93449378	952	2156	1673
93449538	945	2153	1668
93449698	953	2150	1653
93449858	951	2159	1664
93450018	946	2151	1666
93450178	946	2151	1666
93450338	939	2150	1668
93450498	968	2150	1655
93450658	950	2156	1660
93450818	962	2160	1667
93450978	953	2148	1660
93451138	938	2150	1653
93451298	951	2177	1657
93451458	949	2158	1657
93451618	945	2144	1665
93451778	951	2146	1658
93451938	954	2152	1666
93452098	938	2151	1673
93452258	953	2155	1668
93452418	948	2147	1654
93452578	955	2161	1678
93452738	942	2153	1653
93452898	953	2153	1667
93453058	945	2148	1652
93453218	961	2152	1677
93453378	950	2159	1668
93453538	948	2154	1662
93453698	943	2162	1671
93453858	939	2162	1662
93454018	967	2144	1652
93454178	954	2152	1669
93454338	937	2209	1659
93454498	960	2139	1675
93454658	937	2155	1658
93454818	947	2154	1662
93454978	919	2159	1626
93455138	928	2117	1664
93455298	960	2156	1675
93455458	939	2158	1656
93455618	961	2149	1653
93455778	968	2163	1665
93455938	948	2159	1678
93456098	942	2146	1613
93456258	987	2167	1701
93456418	954	2153	1659
93456578	952	2158	1667
93456738	935	2153	1673
93456898	945	2151	1658
93457058	964	2147	1665
93457218	960	2158	1660
93457378	935	2151	1671
93457538	949	2165	1656
93457698	946	2154	1664
93457858	938	2159	1656
93458018	938	2147	1657
93458178	948	2151	1652
93458338	951	2145	1656
93458498	940	2146	1659
93458658	946	2156	1651
93458818	948	2158	1665
93458978	960	2160	1681
93459138	940	2151	1665
93459298	948	2135	1653
93459458	948	2147	1662
93459618	941	2154	1668
93459778	941	2158	1654
93459938	943	2166	1662
93460098	947	2155	1664
93460258	943	2165	1669
93460418	948	2156	1671
93460578	953	2161	1676
93460738	957	2158	1664
93460898	948	2165	1657
93461058	941	2143	1658
93461218	937	2151	1642
93461378	957	2157	1661
93461538	940	2154	1665
93461698	951	2153	1668
93461858	934	2156	1659
93462018	943	2162	1668
93462178	957	2154	1658
93462338	950	2139	1654
93462498	954	2161	1662
93462658	962	2148	1659
93462818	965	2149	1665
93462978	938	2145	1665
93463138	959	2154	1669
93463298	957	2171	1661
93463458	949	2158	1652
93463618	957	2175	1664
93463778	950	2147	1670
93463938	944	2149	1651
93464098	944	2157	1656
93464258	951	2147	1646
93464418	952	2151	1656
93464578	949	2169	1669
93464738	950	2148	1664
93464898	943	2159	1668
93465058	963	2156	1672
93465218	951	2156	1652
93465378	959	2154	1671
93465538	956	2155	1660
93465698	943	2158	1668
93465858	945	2160	1676
93466018	950	2156	1668
93466178	948	2152	1667
93466338	942	2160	1657
93466498	951	2154	1658
93466658	962	2160	1672
93466818	942	2170	1664
93466978	950	2156	1670
93467138	929	2150	1666
93467298	953	2146	1669
93467458	950	2156	1647
93467618	961	2155	1665
93467778	950	2159	1667
93467938	948	2144	1668
93468098	935	2149	1659
93468258	947	2164	1666
93468418	936	2169	1654
93468578	950	2154	1665
93468738	941	2144	1665
93468898	948	2141	1668
93469058	934	2151	1683
93469218	953	2154	1662
93469378	940	2147	1661
93469538	947	2163	1652
93469698	959	2159	1669
93469858	950	2152	1661
93470018	952	2160	1670
93470178	948	2152	1648
93470338	955	2145	1676
93470498	945	2161	1649
93470658	951	2170	1655
93470818	969	2151	1660
93470978	935	2148	1645
93471138	944	2173	1661
93471298	959	2137	1663
93471458	950	2150	1645
93471618	952	2152	1660
93471778	945	2156	1663
93471938	952	2155	1669
93472098	968	2171	1655
93472258	939	2154	1661
93472418	954	2145	1655
93472578	949	2155	1664
93472738	938	2139	1663
93472898	961	2160	1668
93473058	960	2155	1659
93473218	957	2148	1667
93473378	944	2169	1653
93473538	949	2152	1644
93473698	938	2153	1664
93473858	955	2150	1649
93474018	953	2156	1665
93474178	961	2147	1664
93474338	942	2156	1655
93474498	943	2143	1659
93474658	951	2154	1654
93474818	909	2131	1639
93474978	946	2152	1672
93475138	953	2156	1660
93475298	932	2170	1611
93475458	941	2130	1656
93475618	948	2154	1696
93475778	955	2157	1673
93475938	949	2143	1666
93476098	946	2122	1690
93476258	951	2156	1669
93476418	947	2147	1657
93476578	901	2132	1646
93476738	945	2122	1664
93476898	939	2151	1677
93477058	948	2152	1654
93477218	946	2145	1662
93477378	944	2163	1674
93477538	935	2151	1654
93477698	966	2156	1663
93477858	955	2141	1658
93478018	953	2150	1654
93478178	957	2160	1674
93478338	952	2144	1659
93478498	962	2148	1656
93478658	954	2151	1677
93478818	956	2155	1668
93478978	943	2143	1678
93479138	954	2139	1656
93479298	951	2158	1664
93479458	942	2160	1659
93479618	961	2158	1662
93479778	954	2151	1659
93479938	929	2132	1664
93480098	945	2158	1675
93480258	951	2159	1666
93480418	944	2164	1663
93480578	937	2158	1655
93480738	952	2145	1670
93480898	936	2161	1664
93481058	953	2147	1665
93481218	942	2152	1658
93481378	946	2155	1641
93481538	951	2156	1668
93481698	955	2153	1662
93481858	944	2153	1663
93482018	941	2146	1670
93482178	955	2147	1651
93482338	956	2149	1664
93482498	956	2143	1655
93482658	950	2158	1661
93482818	953	2167	1670
93482978	955	2163	1660
93483138	952	2160	1657
93483298	936	2164	1658
93483458	941	2155	1671
93483618	948	2155	1664
93483778	947	2156	1660
93483938	963	2152	1664
93484098	950	2151	1670
93484258	957	2164	1664
93484418	945	2142	1662
93484578	944	2154	1667
93484738	944	2152	1670
93484898	953	2148	1649
93485058	954	2160	1677
93485218	951	2147	1656
93485378	946	2160	1659
93485538	954	2159	1667
93485698	947	2158	1665
93485858	945	2157	1667
93486018	948	2155	1661
93486178	948	2159	1673
93486338	953	2155	1665
93486498	944	2159	1654
93486658	958	2158	1667
93486818	951	2141	1651
93486978	951	2145	1674
93487138	958	2154	1681
93487298	939	2151	1663
93487458	967	2151	1665
93487618	945	2155	1670
93487778	950	2160	1664
93487938	947	2152	1659
93488098	952	2150	1666
93488258	937	2151	1663
93488418	963	2167	1677
93488578	954	2157	1675
93488738	939	2154	1677
93488898	952	2150	1650
93489058	946	2153	1647
93489218	948	2144	1662
93489378	953	2147	1667
93489538	952	2143	1671
93489698	958	2160	1660
93489858	947	2152	1644
93490018	954	2151	1658
93490178	955	2149	1662
93490338	947	2154	1662
93490498	946	2136	1652
93490658	950	2123	1667
93490818	956	2148	1650
93490978	962	2161	1648
93491138	946	2137	1657
93491298	955	2145	1662
93491458	955	2161	1654
93491618	955	2156	1679
93491778	951	2160	1666
93491938	953	2136	1675
93492098	943	2154	1648
93492258	950	2148	1661
93492418	956	2169	1657
93492578	953	2156	1657
93492738	954	2149	1653
93492898	946	2166	1656
93493058	939	2161	1660
93493218	964	2164	1673
93493378	950	2170	1673
93493538	936	2150	1654
93493698	952	2167	1657
93493858	954	2146	1667
93494018	940	2160	1660
93494178	957	2149	1667
93494338	951	2161	1649
93494498	945	2146	1662
93494658	956	2154	1667
93494818	953	2161	1675
93494978	958	2153	1652
93495138	953	2156	1650
93495298	915	2164	1649
93495458	940	2145	1662
93495618	945	2151	1656
93495778	942	2150	1667
93495938	935	2155	1650
93496098	965	2137	1658
93496258	906	2181	1628
93496418	927	2141	1645
93496578	954	2168	1676
93496738	948	2159	1669
93496898	933	2136	1666
93497058	942	2161	1656
93497218	955	2153	1659
93497378	962	2153	1669
93497538	973	2131	1644
93497698	956	2159	1669
93497858	955	2160	1667
93498018	959	2157	1669
93498178	948	2136	1679
93498338	948	2173	1661
93498498	948	2168	1658
93498658	961	2158	1652
93498818	954	2140	1647
93498978	958	2159	1665
93499138	951	2153	1657
93499298	959	2140	1649
93499458	955	2149	1669
93499618	959	2146	1681
93499778	954	2167	1669
93499938	944	2140	1651
93500098	965	2159	1671
93500258	949	2151	1647
93500418	947	2167	1674
93500578	960	2140	1662
93500738	953	2153	1666
93500898	957	2158	1665
93501058	942	2150	1665
93501218	945	2146	1667
93501378	946	2166	1664
93501538	960	2153	1669
93501698	944	2146	1668
93501858	935	2167	1668
93502018	956	2167	1647
93502178	957	2149	1649
93502338	954	2164	1656
93502498	958	2152	1665
93502658	950	2161	1675
93502818	944	2168	1663
93502978	952	2154	1659
93503138	952	2150	1665
93503298	965	2149	1658
93503458	951	2154	1654
93503618	955	2167	1655
93503778	956	2152	1660
93503938	946	2154	1665
93504098	953	2165	1659
93504258	961	2153	1658
93504418	952	2150	1666
93504578	954	2150	1678
93504738	945	2153	1676
93504898	953	2155	1656
93505058	951	2156	1663
93505218	956	2142	1671
93505378	950	2163	1659
93505538	948	2157	1673
93505698	944	2164	1659
93505858	951	2145	1661
93506018	938	2147	1663
93506178	958	2155	1679
93506338	944	2148	1653
93506498	958	2149	1657
93506658	946	2155	1664
93506818	949	2152	1666
93506978	949	2151	1666
93507138	957	2164	1658
93507298	959	2162	1651
93507458	946	2156	1675
93507618	943	2149	1670
93507778	958	2145	1647
93507938	951	2162	1670
93508098	956	2158	1662
93508258	946	2162	1661
93508418	955	2168	1658
93508578	953	2148	1658
93508738	944	2152	1651
93508898	956	2161	1652
93509058	957	2153	1667
93509218	944	2148	1654
93509378	955	2150	1656
93509538	955	2135	1658
93509698	954	2161	1660
93509858	958	2159	1674
93510018	941	2163	1661
93510178	952	2157	1674
93510338	944	2157	1661
93510498	958	2156	1653
93510658	942	2159	1656
93510818	944	2160	1663
93510978	956	2157	1654
93511138	952	2157	1660
93511298	949	2166	1674
93511458	948	2162	1649
93511618	962	2169	1658
93511778	950	2154	1667
93511938	939	2157	1641
93512098	948	2153	1658
93512258	943	2153	1676
93512418	950	2160	1673
93512578	964	2162	1673
93512738	955	2161	1674
93512898	962	2160	1658
93513058	949	2147	1652
93513218	958	2145	1665
93513378	946	2148	1669
93513538	934	2161	1679
93513698	934	2158	1650
93513858	950	2142	1671
93514018	953	2153	1653
93514178	944	2150	1670
93514338	953	2149	1659
93514498	939	2164	1657
93514658	957	2158	1659
93514818	954	2164	1673
93514978	949	2156	1659
93515138	939	2162	1657
93515298	952	2156	1669
93515458	957	2168	1667
93515618	950	2154	1660
93515778	966	2128	1644
93515938	969	2154	1667
93516098	950	2153	1660
93516258	954	2160	1662
93516418	947	2155	1669
93516578	944	2170	1657
93516738	961	2155	1671
93516898	947	2140	1658
93517058	953	2166	1667
93517218	951	2151	1664
93517378	944	2150	1663
93517538	903	2123	1644
93517698	981	2161	1694
93517858	953	2161	1657
93518018	952	2156	1670
93518178	946	2168	1659
93518338	964	2146	1658
93518498	949	2160	1663
93518658	955	2155	1664
93518818	951	2146	1670
93518978	929	2158	1645
93519138	955	2158	1661
93519298	950	2149	1680
93519458	947	2156	1652
93519618	950	2153	1660
93519778	974	2160	1663
93519938	944	2161	1671
93520098	948	2138	1655
93520258	950	2138	1657
93520418	942	2144	1654
93520578	946	2154	1666
93520738	946	2164	1662
93520898	942	2137	1654
93521058	964	2150	1661
93521218	953	2148	1670
93521378	958	2154	1656
93521538	954	2148	1664
93521698	949	2157	1680
93521858	954	2165	1652
93522018	960	2148	1672
93522178	957	2154	1676
93522338	951	2151	1652
93522498	946	2145	1652
93522658	960	2149	1668
93522818	954	2160	1665
93522978	950	2140	1653
93523138	943	2156	1657
93523298	951	2160	1654
93523458	953	2157	1680
93523618	947	2158	1671
93523778	951	2154	1665
93523938	954	2164	1674
93524098	948	2157	1663
93524258	964	2158	1666
93524418	947	2160	1660
93524578	933	2161	1663
93524738	963	2161	1678
93524898	938	2156	1681
93525058	960	2146	1659
93525218	961	2156	1659
93525378	955	2158	1658
93525538	942	2145	1663
93525698	960	2154	1669
93525858	963	2157	1663
93526018	948	2149	1658
93526178	943	2148	1670
93526338	953	2152	1657
93526498	965	2168	1666
93526658	942	2159	1663
93526818	954	2157	1668
93526978	951	2159	1653
93527138	966	2148	1659
93527298	946	2163	1663
93527458	943	2163	1670
93527618	947	2148	1650
93527778	949	2160	1651
93527938	977	2147	1659
93528098	955	2156	1662
93528258	951	2158	1673
93528418	944	2150	1668
93528578	951	2159	1664
93528738	950	2152	1660
93528898	947	2150	1651
93529058	945	2153	1681
93529218	955	2156	1670
93529378	944	2168	1665
93529538	934	2157	1668
93529698	946	2152	1666
93529858	948	2147	1652
93530018	961	2142	1656
93530178	977	2134	1659
93530338	962	2144	1661
93530498	948	2157	1665
93530658	943	2162	1659
93530818	962	2169	1658
93530978	945	2138	1660
93531138	937	2154	1660
93531298	944	2140	1651
93531458	948	2158	1664
93531618	955	2146	1657
93531778	955	2151	1636
93531938	950	2155	1658
93532098	957	2147	1671
93532258	949	2153	1659
93532418	953	2153	1665
93532578	946	2156	1650
93532738	961	2159	1672
93532898	937	2156	1660
93533058	945	2140	1656
93533218	958	2146	1647
93533378	951	2148	1656
93533538	943	2165	1670
93533698	939	2160	1667
93533858	955	2165	1660
93534018	957	2167	1651
93534178	956	2150	1664
93534338	951	2156	1645
93534498	956	2142	1661
93534658	954	2152	1659
93534818	950	2146	1665
93534978	941	2152	1654
93535138	950	2147	1674
93535298	953	2168	1664
93535458	931	2145	1660
93535618	943	2153	1657
93535778	926	2153	1667
93535938	947	2159	1648
93536098	966	2155	1648
93536258	921	2161	1680
93536418	946	2135	1653
93536578	959	2156	1661
93536738	968	2143	1661
93536898	969	2147	1665
93537058	943	2139	1626
93537218	942	2157	1647
93537378	943	2147	1667
93537538	979	2127	1645
93537698	965	2160	1655
93537858	952	2160	1676
93538018	983	2132	1698
93538178	942	2153	1655
93538338	945	2150	1660
93538498	949	2155	1676
93538658	941	2149	1657
93538818	958	2151	1653
93538978	961	2151	1660
93539138	951	2160	1656
93539298	952	2155	1659
93539458	949	2148	1666
93539618	952	2172	1680
93539778	944	2154	1660
93539938	954	2146	1653
93540098	959	2158	1654
93540258	952	2163	1660
93540418	962	2160	1664
93540578	951	2158	1674
93540738	949	2158	1666
93540898	951	2164	1668
93541058	955	2161	1667
93541218	951	2155	1664
93541378	956	2159	1656
93541538	960	2153	1670
93541698	956	2149	1660
93541858	963	2162	1658
93542018	955	2158	1660
93542178	951	2144	1657
93542338	965	2152	1676
93542498	956	2149	1677
93542658	954	2165	1658
93542818	956	2141	1654
93542978	941	2147	1664
93543138	950	2152	1675
93543298	962	2153	1660
93543458	946	2138	1667
93543618	949	2141	1659
93543778	963	2153	1656
93543938	952	2146	1672
93544098	955	2150	1663
93544258	949	2149	1658
93544418	957	2150	1662
93544578	950	2142	1655
93544738	965	2162	1663
93544898	951	2154	1658
93545058	950	2161	1658
93545218	947	2147	1669
93545378	938	2152	1661
93545538	954	2145	1663
93545698	952	2161	1661
93545858	949	2154	1652
93546018	945	2150	1661
93546178	955	2142	1674
93546338	944	2154	1661
93546498	964	2167	1659
93546658	958	2156	1656
93546818	944	2141	1656
93546978	940	2158	1667
93547138	943	2146	1665
93547298	961	2144	1655
93547458	948	2153	1669
93547618	946	2140	1651
93547778	952	2148	1662
93547938	952	2144	1674
93548098	951	2154	1668
93548258	942	2166	1653
93548418	952	2141	1678
93548578	941	2143	1660
93548738	941	2157	1667
93548898	944	2153	1660
93549058	954	2149	1658
93549218	950	2153	1665
93549378	940	2152	1668
93549538	956	2156	1659
93549698	963	2152	1681
93549858	956	2143	1663
93550018	940	2158	1664
93550178	949	2153	1671
93550338	953	2154	1666
93550498	950	2157	1649
93550658	950	2158	1674
93550818	957	2161	1669
93550978	960	2151	1668
93551138	955	2148	1672
93551298	960	2159	1649
93551458	952	2159	1650
93551618	952	2156	1656
93551778	952	2146	1670
93551938	952	2158	1660
93552098	950	2161	1662
93552258	953	2151	1647
93552418	942	2167	1654
93552578	952	2163	1656
93552738	958	2162	1669
93552898	953	2150	1664
93553058	953	2157	1656
93553218	944	2153	1672
93553378	944	2161	1655
93553538	945	2157	1657
93553698	948	2156	1669
93553858	940	2168	1671
93554018	950	2155	1660
93554178	963	2151	1649
93554338	952	2158	1673
93554498	946	2142	1660
93554658	957	2155	1659
93554818	943	2147	1658
93554978	951	2142	1670
93555138	958	2148	1668
93555298	951	2156	1667
93555458	941	2156	1654
93555618	948	2155	1654
93555778	959	2158	1653
93555938	957	2147	1655
93556098	948	2158	1661
93556258	947	2164	1666
93556418	936	2144	1665
93556578	948	2163	1656
93556738	921	2129	1638
93556898	953	2145	1664
93557058	964	2158	1659
93557218	910	2134	1658
93557378	971	2149	1679
93557538	971	2186	1693
93557698	943	2150	1659
93557858	950	2155	1648
93558018	947	2161	1686
93558178	950	2150	1666
93558338	938	2154	1663
93558498	919	2115	1677
93558658	1001	2201	1685
93558818	941	2164	1667
93558978	946	2150	1659
93559138	956	2151	1659
93559298	940	2156	1671
93559458	947	2149	1660
93559618	952	2166	1664
93559778	930	2145	1655
93559938	953	2147	1656
93560098	952	2168	1658
93560258	942	2146	1662
93560418	955	2154	1666
93560578	949	2160	1666
93560738	955	2160	1656
93560898	957	2175	1646
93561058	938	2153	1651
93561218	957	2152	1656
93561378	949	2151	1658
93561538	951	2158	1660
93561698	941	2162	1644
93561858	945	2153	1674
93562018	962	2152	1652
93562178	958	2145	1666
93562338	936	2155	1657
93562498	949	2151	1660
93562658	946	2154	1666
93562818	935	2155	1671
93562978	949	2148	1668
93563138	935	2148	1649
93563298	953	2147	1658
93563458	955	2161	1661
93563618	954	2148	1648
93563778	949	2155	1665
93563938	946	2176	1651
93564098	936	2156	1647
93564258	949	2148	1656
93564418	939	2151	1650
93564578	953	2150	1673
93564738	956	2155	1662
93564898	954	2156	1657
93565058	944	2147	1655
93565218	953	2151	1669
93565378	951	2141	1667
93565538	942	2156	1671
93565698	946	2145	1676
93565858	944	2146	1657
93566018	959	2148	1655
93566178	942	2158	1663
93566338	949	2159	1664
93566498	943	2155	1666
93566658	953	2171	1672
93566818	944	2151	1659
93566978	956	2160	1653
93567138	939	2146	1674
93567298	955	2151	1670
93567458	947	2149	1670
93567618	944	2169	1659
93567778	964	2156	1654
93567938	936	2153	1671
93568098	954	2144	1671
93568258	938	2149	1658
93568418	941	2154	1675
93568578	952	2142	1651
93568738	949	2157	1655
93568898	960	2155	1663
93569058	963	2153	1655
93569218	938	2155	1665
93569378	949	2150	1665
93569538	947	2149	1658
93569698	948	2146	1662
93569858	934	2156	1667
93570018	956	2158	1664
93570178	949	2166	1681
93570338	946	2151	1661
93570498	958	2152	1658
93570658	957	2162	1666
93570818	943	2150	1651
93570978	955	2152	1654
93571138	946	2158	1658
93571298	950	2160	1659
93571458	945	2169	1652
93571618	965	2155	1642
93571778	956	2166	1654
93571938	952	2151	1667
93572098	947	2157	1664
93572258	954	2160	1659
93572418	957	2150	1660
93572578	949	2158	1675
93572738	936	2154	1670
93572898	938	2149	1657
93573058	955	2160	1659
93573218	937	2150	1674
93573378	946	2148	1669
93573538	940	2147	1682
93573698	938	2154	1664
93573858	945	2161	1646
93574018	945	2144	1657
93574178	952	2158	1654
93574338	955	2152	1653
93574498	949	2152	1674
93574658	940	2166	1652
93574818	946	2155	1661
93574978	943	2157	1647
93575138	953	2170	1661
93575298	954	2158	1671
93575458	935	2165	1681
93575618	942	2155	1668
93575778	947	2155	1669
93575938	955	2150	1662
93576098	958	2162	1657
93576258	933	2139	1663
93576418	951	2147	1654
93576578	947	2143	1643
93576738	944	2155	1681
93576898	953	2146	1669
93577058	950	2163	1667
93577218	948	2214	1669
93577378	943	2152	1649
93577538	943	2148	1664
93577698	992	2174	1671
93577858	968	2172	1683
93578018	922	2157	1680
93578178	946	2144	1660
93578338	948	2164	1661
93578498	962	2124	1669
93578658	945	2148	1655
93578818	944	2153	1656
93578978	949	2168	1661
93579138	939	2138	1635
93579298	934	2151	1672
93579458	940	2156	1667
93579618	952	2150	1662
93579778	961	2142	1648
93579938	947	2158	1667
93580098	947	2150	1659
93580258	945	2155	1653
93580418	950	2152	1654
93580578	946	2152	1667
93580738	943	2160	1663
93580898	946	2162	1665
93581058	946	2149	1667
93581218	945	2158	1671
93581378	950	2147	1646
93581538	956	2155	1650
93581698	955	2160	1675
93581858	949	2160	1658
93582018	953	2147	1662
93582178	961	2159	1661
93582338	933	2158	1672
93582498	952	2160	1670
93582658	938	2146	1672
93582818	947	2144	1667
93582978	956	2162	1653
93583138	968	2160	1648
93583298	952	2148	1665
93583458	946	2156	1651
93583618	967	2153	1660
93583778	945	2146	1651
93583938	953	2167	1659
93584098	963	2150	1651
93584258	948	2164	1674
93584418	950	2151	1678
93584578	946	2147	1656
93584738	968	2163	1657
93584898	958	2162	1654
93585058	951	2153	1649
93585218	951	2161	1652
93585378	954	2147	1672
93585538	936	2155	1679
93585698	949	2163	1660
93585858	953	2155	1672
93586018	955	2151	1657
93586178	948	2157	1665
93586338	948	2158	1656
93586498	949	2150	1648
93586658	946	2147	1665
93586818	948	2165	1664
93586978	953	2148	1655
93587138	948	2164	1656
93587298	960	2146	1660
93587458	952	2161	1667
93587618	949	2159	1670
93587778	942	2150	1674
93587938	949	2151	1664
93588098	957	2150	1669
93588258	938	2153	1657
93588418	956	2151	1649
93588578	943	2147	1652
93588738	953	2161	1657
93588898	951	2148	1657
93589058	968	2154	1663
93589218	952	2153	1658
93589378	963	2154	1652
93589538	955	2162	1666
93589698	963	2146	1649
93589858	946	2151	1658
93590018	953	2163	1680
93590178	943	2160	1647
93590338	959	2150	1663
93590498	953	2153	1663
93590658	958	2163	1664
93590818	945	2147	1662
93590978	954	2147	1665
93591138	948	2160	1656
93591298	960	2155	1662
93591458	948	2157	1662
93591618	947	2144	1658
93591778	941	2167	1684
93591938	949	2147	1657
93592098	943	2147	1669
93592258	945	2154	1660
93592418	961	2149	1667
93592578	953	2146	1662
93592738	950	2159	1687
93592898	936	2158	1664
93593058	942	2154	1682
93593218	943	2155	1653
93593378	945	2163	1659
93593538	941	2146	1659
93593698	957	2154	1667
93593858	948	2159	1668
93594018	944	2145	1669
93594178	961	2147	1661
93594338	952	2171	1657
93594498	941	2150	1666
93594658	949	2159	1652
93594818	940	2149	1660
93594978	947	2163	1663
93595138	947	2150	1675
93595298	949	2147	1653
93595458	948	2155	1674
93595618	956	2159	1661
93595778	951	2154	1658
93595938	950	2142	1663
93596098	961	2148	1668
93596258	949	2147	1655
93596418	947	2154	1664
93596578	948	2159	1668
93596738	952	2154	1678
93596898	934	2159	1654
93597058	945	2165	1671
93597218	953	2155	1662
93597378	950	2151	1663
93597538	942	2158	1664
93597698	968	2145	1649
93597858	947	2152	1649
93598018	945	2163	1657
93598178	951	2144	1672
93598338	975	2147	1633
93598498	953	2152	1669
93598658	931	2149	1661
93598818	966	2130	1644
93598978	942	2147	1674
93599138	932	2170	1661
93599298	991	2171	1675
93599458	950	2137	1656
93599618	947	2149	1658
93599778	963	2147	1660
93599938	935	2162	1660
93600098	948	2158	1672
93600258	950	2149	1664
93600418	947	2158	1670
93600578	952	2149	1649
93600738	953	2160	1664
93600898	940	2159	1681
93601058	934	2158	1658
93601218	950	2141	1656
93601378	946	2141	1652
93601538	940	2156	1661
93601698	951	2151	1660
93601858	943	2168	1660
93602018	945	2166	1658
93602178	956	2162	1679
93602338	952	2148	1647
93602498	954	2150	1659
93602658	953	2140	1658
93602818	943	2143	1665
93602978	941	2165	1671
93603138	943	2159	1648
93603298	958	2150	1665
93603458	945	2161	1664
93603618	953	2152	1666
93603778	948	2152	1663
93603938	940	2165	1656
93604098	948	2165	1654
93604258	944	2159	1679
93604418	951	2152	1671
93604578	946	2156	1680
93604738	957	2158	1665
93604898	953	2159	1655
93605058	954	2152	1647
93605218	958	2155	1672
93605378	953	2160	1662
93605538	947	2147	1675
93605698	940	2154	1666
93605858	955	2145	1665
93606018	948	2169	1651
93606178	941	2147	1652
93606338	952	2143	1666
93606498	957	2154	1674
93606658	950	2153	1668
93606818	952	2154	1673
93606978	943	2151	1661
93607138	962	2163	1661
93607298	957	2167	1647
93607458	934	2152	1671
93607618	952	2143	1653
93607778	942	2153	1654
93607938	950	2165	1666
93608098	948	2155	1666
93608258	940	2163	1672
93608418	951	2163	1670
93608578	946	2156	1662
93608738	945	2140	1654
93608898	954	2142	1659
93609058	950	2149	1665
93609218	944	2149	1652
93609378	947	2164	1658
93609538	965	2156	1667
93609698	955	2156	1680
93609858	948	2164	1668
93610018	948	2148	1665
93610178	946	2154	1659
93610338	938	2151	1651
93610498	949	2150	1657
93610658	943	2154	1666
93610818	944	2160	1674
93610978	943	2152	1659
93611138	955	2149	1667
93611298	950	2149	1665
93611458	944	2155	1659
93611618	945	2150	1662
93611778	953	2140	1656
93611938	952	2157	1669
93612098	947	2150	1652
93612258	951	2157	1670
93612418	947	2162	1669
93612578	939	2170	1663
93612738	955	2153	1669
93612898	951	2152	1652
93613058	952	2167	1675
93613218	952	2164	1653
93613378	963	2149	1666
93613538	931	2149	1655
93613698	949	2158	1651
93613858	955	2155	1655
93614018	955	2145	1658
93614178	931	2156	1667
93614338	952	2154	1663
93614498	941	2161	1675
93614658	942	2150	1663
93614818	951	2148	1659
93614978	950	2140	1661
93615138	976	2172	1647
93615298	954	2165	1665
93615458	938	2150	1659
93615618	947	2158	1657
93615778	953	2149	1662
93615938	953	2164	1675
93616098	962	2162	1667
93616258	943	2151	1656
93616418	950	2158	1659
93616578	949	2163	1656
93616738	954	2150	1652
93616898	938	2150	1661
93617058	947	2143	1665
93617218	948	2145	1662
93617378	952	2158	1659
93617538	948	2156	1657
93617698	947	2146	1645
93617858	948	2159	1654
93618018	939	2161	1654
93618178	891	2127	1689
93618338	944	2142	1684
93618498	952	2155	1659
93618658	941	2161	1663
93618818	942	2105	1689
93618978	946	2150	1669
93619138	943	2148	1672
93619298	944	2169	1669
93619458	950	2153	1665
93619618	951	2147	1663
93619778	941	2141	1676
93619938	939	2154	1643
93620098	952	2152	1657
93620258	933	2155	1648
93620418	942	2157	1664
93620578	952	2174	1665
93620738	950	2168	1664
93620898	957	2159	1657
93621058	950	2149	1658
93621218	949	2156	1670
93621378	949	2151	1657
93621538	945	2155	1670
93621698	941	2156	1656
93621858	954	2147	1661
93622018	948	2154	1658
93622178	951	2141	1669
93622338	943	2153	1663
93622498	956	2157	1667
93622658	946	2155	1665
93622818	946	2157	1674
93622978	949	2157	1655
93623138	959	2153	1659
93623298	940	2155	1639
93623458	942	2159	1657
93623618	965	2142	1648
93623778	938	2151	1654
93623938	943	2148	1657
93624098	951	2147	1668
93624258	943	2158	1667
93624418	947	2154	1646
93624578	946	2151	1661
93624738	955	2158	1655
93624898	960	2149	1655
93625058	955	2156	1650
93625218	945	2161	1654
93625378	949	2157	1658
93625538	954	2147	1671
93625698	952	2150	1674
93625858	948	2156	1659
93626018	946	2161	1658
93626178	955	2171	1672
93626338	939	2162	1672
93626498	960	2151	1661
93626658	961	2147	1663
93626818	962	2152	1664
93626978	941	2141	1672
93627138	964	2153	1659
93627298	955	2162	1659
93627458	951	2160	1661
93627618	960	2161	1662
93627778	954	2169	1659
93627938	941	2158	1658
93628098	947	2162	1664
93628258	946	2159	1670
93628418	932	2144	1667
93628578	943	2156	1654
93628738	939	2162	1669
93628898	941	2154	1655
93629058	955	2152	1669
93629218	948	2148	1659
93629378	953	2157	1657
93629538	946	2145	1661
93629698	946	2163	1655
93629858	947	2159	1650
93630018	952	2158	1658
93630178	955	2156	1651
93630338	932	2150	1667
93630498	948	2162	1653
93630658	952	2150	1664
93630818	949	2148	1666
93630978	943	2159	1673
93631138	946	2158	1659
93631298	941	2145	1655
93631458	954	2163	1662
93631618	952	2156	1659
93631778	949	2170	1665
93631938	953	2157	1667
93632098	950	2144	1657
93632258	946	2165	1660
93632418	940	2154	1665
93632578	948	2161	1665
93632738	946	2151	1669
93632898	963	2161	1670
93633058	951	2157	1652
93633218	950	2142	1662
93633378	956	2143	1658
93633538	948	2161	1662
93633698	949	2165	1669
93633858	941	2159	1663
93634018	944	2161	1671
93634178	960	2172	1651
93634338	965	2163	1653
93634498	950	2156	1655
93634658	955	2153	1668
93634818	944	2158	1674
93634978	959	2158	1653
93635138	959	2149	1666
93635298	953	2157	1664
93635458	949	2157	1675
93635618	951	2160	1657
93635778	947	2167	1662
93635938	955	2152	1677
93636098	959	2150	1661
93636258	951	2160	1651
93636418	947	2148	1665
93636578	956	2145	1664
93636738	945	2142	1652
93636898	944	2152	1672
93637058	938	2145	1671
93637218	956	2149	1654
93637378	947	2143	1662
93637538	954	2153	1651
93637698	966	2152	1655
93637858	925	2167	1658
93638018	944	2149	1659
93638178	948	2151	1658
93638338	969	2138	1678
93638498	955	2149	1656
93638658	979	2146	1624
93638818	910	2152	1691
93638978	907	2139	1671
93639138	947	2141	1653
93639298	947	2173	1696
93639458	959	2150	1661
93639618	962	2151	1656
93639778	965	2146	1674
93639938	946	2149	1674
93640098	929	2154	1659
93640258	972	2202	1644
93640418	945	2160	1658
93640578	937	2148	1664
93640738	974	2146	1646
93640898	977	2150	1666
93641058	942	2164	1637
93641218	944	2156	1663
93641378	938	2151	1665
93641538	951	2143	1655
93641698	964	2152	1675
93641858	960	2164	1653
93642018	951	2147	1641
93642178	956	2155	1667
93642338	944	2144	1675
93642498	945	2158	1665
93642658	942	2152	1666
93642818	946	2160	1655
93642978	948	2154	1655
93643138	939	2147	1671
93643298	958	2146	1657
93643458	967	2163	1664
93643618	949	2152	1657
93643778	936	2159	1665
93643938	949	2155	1677
93644098	948	2149	1659
93644258	956	2168	1667
93644418	950	2159	1670
93644578	938	2153	1658
93644738	944	2158	1683
93644898	941	2148	1658
93645058	943	2151	1663
93645218	962	2156	1665
93645378	943	2136	1661
93645538	945	2148	1664
93645698	960	2166	1675
93645858	939	2150	1657
93646018	957	2161	1675
93646178	944	2154	1667
93646338	942	2144	1673
93646498	979	2138	1662
93646658	958	2154	1658
93646818	960	2144	1674
93646978	953	2163	1657
93647138	946	2156	1648
93647298	931	2142	1658
93647458	952	2146	1651
93647618	957	2149	1667
93647778	948	2151	1639
93647938	964	2166	1658
93648098	952	2154	1662
93648258	956	2158	1653
93648418	956	2146	1662
93648578	952	2146	1664
93648738	957	2155	1667
93648898	960	2158	1652
93649058	973	2165	1663
93649218	966	2163	1660
93649378	949	2151	1671
93649538	944	2151	1674
93649698	940	2163	1664
93649858	953	2147	1652
93650018	949	2156	1661
93650178	965	2157	1667
93650338	954	2166	1657
93650498	941	2154	1667
93650658	936	2160	1667
93650818	946	2146	1658
93650978	955	2151	1665
93651138	950	2150	1661
93651298	957	2157	1662
93651458	952	2158	1657
93651618	952	2157	1664
93651778	944	2150	1657
93651938	950	2166	1648
93652098	943	2146	1662
93652258	957	2157	1656
93652418	946	2161	1663
93652578	961	2148	1655
93652738	970	2150	1660
93652898	945	2147	1677
93653058	954	2162	1666
93653218	946	2163	1657
93653378	954	2156	1670
93653538	955	2156	1643
93653698	947	2142	1655
93653858	960	2153	1672
93654018	961	2153	1666
93654178	943	2166	1665
93654338	937	2151	1683
93654498	954	2153	1668
93654658	953	2148	1665
93654818	955	2144	1658
93654978	958	2154	1657
93655138	953	2167	1666
93655298	947	2162	1664
93655458	931	2150	1665
93655618	955	2151	1654
93655778	952	2163	1665
93655938	941	2144	1659
93656098	960	2157	1670
93656258	957	2147	1676
93656418	952	2155	1666
93656578	954	2164	1657
93656738	949	2155	1657
93656898	948	2154	1672
93657058	944	2166	1663
93657218	949	2150	1682
93657378	954	2159	1671
93657538	945	2159	1667
93657698	951	2165	1651
93657858	954	2166	1672
93658018	946	2142	1658
93658178	946	2149	1673
93658338	950	2156	1651
93658498	961	2149	1665
93658658	958	2159	1657
93658818	965	2154	1645
93658978	941	2143	1652
93659138	974	2169	1650
93659298	938	2175	1676
93659458	952	2151	1662
93659618	966	2158	1654
93659778	975	2143	1633
93659938	946	2159	1652
93660098	965	2156	1661
93660258	963	2135	1614
93660418	962	2153	1655
93660578	957	2161	1678
93660738	971	2153	1624
93660898	947	2155	1656
93661058	949	2162	1655
93661218	956	2152	1668
93661378	952	2154	1646
93661538	955	2175	1667
93661698	951	2142	1653
93661858	952	2155	1677
93662018	962	2159	1656
93662178	946	2155	1645
93662338	954	2153	1678
93662498	943	2140	1661
93662658	964	2153	1663
93662818	946	2155	1664
93662978	954	2168	1653
93663138	955	2141	1662
93663298	946	2147	1658
93663458	956	2155	1661
93663618	943	2153	1664
93663778	949	2158	1659
93663938	942	2147	1647
93664098	954	2167	1658
93664258	961	2138	1654
93664418	937	2131	1553
93664578	907	2126	1484
93664738	853	2171	1475
93664898	1013	2240	1709
93665058	1056	2246	1650
93665218	1011	2241	1666
93665378	863	2160	1530
93665538	915	2172	1633
93665698	959	2139	1709
93665858	949	2105	1806
93666018	949	2081	1739
93666178	973	2119	1808
93666338	948	2115	1817
93666498	935	2105	1775
93666658	948	2155	1733
93666818	968	2166	1727
93666978	949	2170	1683
93667138	943	2162	1650
93667298	944	2166	1637
93667458	949	2138	1625
93667618	948	2163	1630
93667778	943	2164	1631
93667938	959	2150	1628
93668098	946	2135	1571
93668258	950	2165	1644
93668418	954	2167	1651
93668578	941	2146	1660
93668738	952	2161	1657
93668898	955	2135	1664
93669058	943	2135	1645
93669218	955	2147	1644
93669378	936	2147	1644
93669538	953	2149	1651
93669698	957	2160	1646
93669858	967	2161	1678
93670018	951	2152	1716
93670178	955	2142	1724
93670338	949	2142	1733
93670498	952	2151	1696
93670658	948	2161	1700
93670818	962	2161	1664
93670978	938	2148	1610
93671138	946	2153	1619
93671298	940	2133	1615
93671458	949	2145	1609
93671618	954	2163	1644
93671778	951	2156	1699
93671938	936	2141	1736
93672098	961	2164	1699
93672258	939	2172	1718
93672418	953	2155	1686
93672578	941	2161	1679
93672738	947	2165	1660
93672898	945	2156	1641
93673058	948	2154	1624
93673218	944	2153	1647
93673378	942	2150	1663
93673538	949	2161	1688
93673698	954	2126	1682
93673858	965	2106	1728
93674018	950	2068	1709
93674178	946	2064	1716
93674338	951	2066	1750
93674498	979	2096	1734
93674658	937	2153	1673
93674818	946	2167	1632
93674978	963	2208	1506
93675138	972	2212	1641
93675298	948	2184	1655
93675458	950	2163	1616
93675618	937	2147	1656
93675778	907	2133	1657
93675938	882	2117	1642
93676098	863	2137	1657
93676258	839	2085	1646
93676418	832	2083	1613
93676578	757	2050	1665
93676738	783	2040	1681
93676898	823	2031	1748
93677058	802	2028	1703
93677218	860	2061	1643
93677378	902	2122	1692
93677538	1039	2315	1853
93677698	1112	2447	1904
93677858	1040	2504	1883
93678018	1017	2364	1772
93678178	945	2279	1611
93678338	963	2265	1520
93678498	929	2400	1460
93678658	1028	2348	1508
93678818	986	2350	1511
93678978	943	2299	1524
93679138	890	2292	1560
93679298	865	2295	1580
93679458	844	2277	1640
93679618	809	2344	1626
93679778	852	2333	1624
93679938	942	2347	1647
93680098	971	2361	1667
93680258	989	2324	1627
93680418	891	2404	1651
93680578	960	2386	1605
93680738	862	2466	1566
93680898	905	2510	1536
93681058	905	2509	1541
93681218	911	2520	1579
93681378	914	2530	1519
93681538	896	2551	1516
93681698	868	2604	1475
93681858	878	2583	1479
93682018	916	2580	1504
93682178	958	2544	1567
93682338	987	2558	1600
93682498	966	2595	1591
93682658	952	2622	1574
93682818	969	2619	1569
93682978	968	2618	1569
93683138	1000	2608	1566
93683298	994	2613	1563
93683458	1024	2617	1582
93683618	1007	2656	1565
93683778	1020	2669	1576
93683938	1015	2679	1624
93684098	1049	2691	1629
93684258	1063	2697	1633
93684418	1062	2689	1635
93684578	1108	2659	1641
93684738	1157	2647	1652
93684898	1174	2634	1698
93685058	997	2712	1835
93685218	1146	2831	1705
93685378	1081	2771	1760
93685538	1157	2787	1784
93685698	1211	2780	1826
93685858	1213	2778	1826
93686018	1234	2785	1782
93686178	1225	2778	1746
93686338	1271	2783	1744
93686498	1328	2795	1755
93686658	1341	2750	1788
93686818	1367	2759	1807
93686978	1376	2803	1759
93687138	1390	2796	1765
93687298	1439	2765	1780
93687458	1485	2745	1809
93687618	1507	2745	1827
93687778	1487	2752	1786
93687938	1487	2813	1736
93688098	1526	2796	1764
93688258	1591	2792	1823
93688418	1655	2841	1856
93688578	1621	2840	1811
93688738	1654	2899	1799
93688898	1667	2890	1841
93689058	1738	2904	1869
93689218	1774	2941	1917
93689378	1824	2933	1906
93689538	1831	2952	1966
93689698	1886	2985	1981
93689858	1870	2995	1932
93690018	1867	3033	1887
93690178	1887	3056	1845
93690338	1893	3074	1867
93690498	1927	3058	1884
93690658	1916	3020	1839
93690818	1880	2981	1761
93690978	1821	2986	1712
93691138	1850	2991	1730
93691298	1951	3014	1758
93691458	1967	3091	1799
93691618	2020	3094	1839
93691778	1985	3049	1851
93691938	2115	2948	1885
93692098	2041	2878	1984
93692258	2012	3040	1956
93692418	2086	3057	1923
93692578	2135	3037	1913
93692738	2085	3005	1920
93692898	2103	3052	1976
93693058	2131	3056	1925
93693218	2129	3003	1889
93693378	2143	2975	1906
93693538	2143	2953	1903
93693698	2144	2935	1890
93693858	2123	2928	1872
93694018	2160	2937	1917
93694178	2187	2948	1925
93694338	2167	2917	1958
93694498	2228	2876	1967
93694658	2243	2874	1992
93694818	2232	2913	2012
93694978	2304	2982	2013
93695138	2313	3011	1969
93695298	2332	3044	1950
93695458	2352	3027	1945
93695618	2347	3001	1921
93695778	2329	2977	1924
93695938	2352	2929	1897
93696098	2318	2874	1871
93696258	2307	2220	1522
93696418	2188	2413	1545
93696578	2277	2764	1690
93696738	2449	3076	1796
93696898	2560	3191	1867
93697058	2583	3118	1829
93697218	2653	3108	1821
93697378	2557	3031	1840
93697538	2503	2923	1818
93697698	2511	2857	1778
93697858	2531	2823	1781
93698018	2539	2862	1779
93698178	2510	2894	1771
93698338	2651	2861	1855
93698498	2585	2830	1726
93698658	2432	2769	1729
93698818	2494	2640	1705
93698978	2521	2562	1691
93699138	2584	2537	1768
93699298	2616	2509	1725
93699458	2735	2570	1672
93699618	2840	2651	1706
93699778	2834	2703	1657
93699938	2931	2780	1703
93700098	2805	2778	1663
93700258	2802	2630	1625
93700418	2797	2562	1613
93700578	2803	2518	1601
93700738	2795	2451	1609
93700898	2826	2453	1554
93701058	2791	2477	1539
93701218	2834	2444	1494
93701378	2831	2426	1572
93701538	2848	2410	1598
93701698	2854	2459	1568
93701858	2894	2441	1632
93702018	2931	2429	1612
93702178	2927	2450	1615
93702338	2943	2475	1591
93702498	2948	2452	1593
93702658	2942	2438	1556
93702818	2925	2391	1548
93702978	2895	2371	1519
93703138	2863	2317	1515
93703298	2834	2300	1504
93703458	2825	2275	1525
93703618	2818	2251	1554
93703778	2803	2211	1532
93703938	2810	2183	1508
93704098	2843	2144	1473
93704258	2859	2142	1466
93704418	2883	2126	1487
93704578	2900	2117	1495
93704738	2922	2099	1518
93704898	2918	2105	1504
93705058	2900	2109	1492
93705218	2908	2148	1482
93705378	2898	2120	1456
93705538	2883	2098	1462
93705698	2897	2112	1444
93705858	2888	2110	1442
93706018	2894	2111	1439
93706178	2901	2114	1441
93706338	2900	2136	1484
93706498	2900	2113	1484
93706658	2893	2087	1467
93706818	2875	2093	1466
93706978	2863	2069	1465
93707138	2871	2091	1483
93707298	2850	2109	1479
93707458	2826	2115	1479
93707618	2836	2113	1504
93707778	2846	2112	1515
93707938	2863	2116	1546
93708098	2876	2113	1517
93708258	2917	2093	1600
93708418	2882	2151	1523
93708578	2858	2087	1558
93708738	2868	2077	1580
93708898	2855	2102	1547
93709058	2874	2108	1508
93709218	2882	2092	1500
93709378	2869	2070	1506
93709538	2860	2108	1527
93709698	2858	2107	1501
93709858	2858	2079	1487
93710018	2883	2122	1533
93710178	2886	2106	1549
93710338	2871	2127	1536
93710498	2854	2093	1560
93710658	2849	2100	1540
93710818	2854	2084	1537
93710978	2854	2078	1504
93711138	3246	1779	1372
93711298	2948	2072	1317
93711458	2928	2039	1501
93711618	2927	2019	1509
93711778	2934	2079	1547
93711938	2891	2095	1545
93712098	2861	2090	1540
93712258	2854	2094	1542
93712418	2836	2091	1528
93712578	2836	2111	1538
93712738	2831	2106	1555
93712898	2837	2111	1553
93713058	2823	2114	1567
93713218	2823	2093	1576
93713378	2829	2096	1585
93713538	2837	2107	1592
93713698	2851	2097	1574
93713858	2849	2099	1555
93714018	2845	2126	1536
93714178	2841	2134	1538
93714338	2832	2137	1529
93714498	2839	2138	1536
93714658	2965	2172	1548
93714818	2879	2016	1599
93714978	2816	2110	1533
93715138	2851	2111	1568
93715298	2864	2137	1559
93715458	2863	2167	1560
93715618	2846	2164	1572
93715778	2865	2151	1581
93715938	2853	2148	1575
93716098	2861	2150	1596
93716258	2849	2036	1727
93716418	2849	2159	1682
93716578	2870	2151	1612
93716738	2858	2158	1530
93716898	2857	2159	1444
93717058	2869	2151	1503
93717218	2849	2151	1520
93717378	2872	2166	1546
93717538	2851	2142	1600
93717698	2874	2153	1613
93717858	2876	2147	1605
93718018	2862	2145	1621
93718178	2863	2148	1632
93718338	2876	2147	1624
93718498	2874	2153	1607
93718658	2880	2157	1605
93718818	2874	2139	1600
93718978	2879	2127	1581
93719138	2872	2134	1616
93719298	2861	2163	1599
93719458	2856	2144	1602
93719618	2876	2145	1603
93719778	2862	2141	1610
93719938	2875	2149	1609
93720098	2870	2145	1598
93720258	2861	2147	1601
93720418	2851	2151	1620
93720578	2873	2140	1634
93720738	2850	2174	1617
93720898	2865	2147	1631
93721058	2874	2147	1638
93721218	2893	2132	1594
93721378	2866	2167	1612
93721538	2867	2110	1660
93721698	2859	2093	1614
93721858	2850	2135	1616
93722018	2862	2148	1577
93722178	2844	2160	1698
93722338	2869	2153	1581
93722498	2861	2153	1553
93722658	2869	2171	1635
93722818	2872	2136	1610
93722978	2870	2139	1573
93723138	2864	2129	1610
93723298	2884	2133	1639
93723458	2860	2150	1632
93723618	2866	2140	1682
93723778	2879	2128	1598
93723938	2880	2159	1660
93724098	2862	2165	1643
93724258	2865	2154	1581
93724418	2872	2129	1589
93724578	2869	2153	1485
93724738	2866	2157	1545
93724898	2883	2125	1651
93725058	2901	2132	1592
93725218	2839	2148	1632
93725378	2846	2153	1589
93725538	2880	2149	1539
93725698	2864	2146	1580
93725858	2871	2148	1602
93726018	2871	2147	1635
93726178	2873	2176	1603
93726338	2867	2142	1603
93726498	2868	2128	1633
93726658	2864	2121	1665
93726818	2872	2139	1670
93726978	2864	2170	1627
93727138	2855	2152	1599
93727298	2874	2154	1613
93727458	2885	2160	1638
93727618	2861	2158	1643
93727778	2851	2155	1643
93727938	2868	2146	1637
93728098	2865	2151	1652
93728258	2863	2149	1640
93728418	2862	2138	1660
93728578	2871	2148	1637
93728738	2859	2141	1638
93728898	3051	1701	2464
93729058	2823	2295	1645
93729218	2793	2268	1509
93729378	2865	2155	1542
93729538	2860	2199	1526
93729698	2856	2159	1671
93729858	2863	2147	1672
93730018	2839	2155	1746
93730178	2877	2163	1631
93730338	2854	2143	1655
93730498	2856	2164	1653
93730658	2860	2165	1675
93730818	2864	2151	1662
93730978	2860	2155	1655
93731138	2869	2143	1664
93731298	2865	2142	1671
93731458	2865	2163	1651
93731618	2866	2153	1666
93731778	2859	2155	1670
93731938	2861	2142	1657
93732098	2859	2159	1663
93732258	2863	2163	1647
93732418	2869	2145	1666
93732578	2877	2145	1656
93732738	2871	2158	1667
93732898	2862	2164	1652
93733058	2866	2150	1650
93733218	2873	2149	1662
93733378	2869	2150	1662
93733538	2874	2155	1666
93733698	2862	2150	1648
93733858	2854	2158	1643
93734018	2856	2155	1657
93734178	2859	2131	1674
93734338	2854	2158	1664
93734498	2867	2157	1664
93734658	2860	2150	1675
93734818	2867	2149	1661
93734978	2854	2135	1663
93735138	2876	2135	1676
93735298	2863	2153	1658
93735458	2870	2138	1665
93735618	2858	2153	1661
93735778	2870	2152	1660
93735938	2866	2149	1675
93736098	2878	2152	1655
93736258	2875	2152	1657
93736418	2866	2154	1663
93736578	2860	2158	1670
93736738	2863	2158	1648
93736898	2864	2151	1651
93737058	2878	2161	1671
93737218	2863	2165	1664
93737378	2879	2152	1671
93737538	2865	2159	1659
93737698	2863	2147	1647
93737858	2875	2148	1651
93738018	2867	2158	1650
93738178	2867	2174	1652
93738338	2876	2162	1660
93738498	2878	2143	1659
93738658	2883	2148	1647
93738818	2860	2143	1671
93738978	2871	2152	1657
93739138	2865	2149	1651
93739298	2871	2151	1659
93739458	2870	2134	1641
93739618	2869	2146	1666
93739778	2868	2145	1660
93739938	2868	2143	1669
93740098	2872	2151	1653
93740258	2869	2137	1662
93740418	2865	2148	1667
93740578	2865	2160	1665
93740738	2862	2151	1664
93740898	2877	2160	1662
93741058	2852	2158	1642
93741218	2861	2149	1662
93741378	2871	2134	1667
93741538	2862	2144	1660
93741698	2862	2153	1612
93741858	2855	2147	1662
93742018	2873	2155	1652
93742178	2844	2132	1677
93742338	2857	2142	1659
93742498	2868	2152	1665
93742658	2853	2170	1715
93742818	2861	2153	1668
93742978	2872	2152	1662
93743138	2874	2141	1661
93743298	2862	2151	1681
93743458	2872	2158	1662
93743618	2858	2160	1664
93743778	2869	2149	1656
93743938	2859	2160	1648
93744098	2862	2151	1669
93744258	2860	2154	1640
93744418	2862	2147	1676
93744578	2862	2154	1677
93744738	2870	2155	1656
93744898	2868	2154	1673
93745058	2874	2148	1666
93745218	2849	2147	1653
93745378	2857	2162	1666
93745538	2870	2148	1647
93745698	2859	2152	1664
93745858	2860	2147	1642
93746018	2859	2162	1652
93746178	2871	2135	1662
93746338	2864	2139	1657
93746498	2865	2157	1654
93746658	2857	2161	1668
93746818	2863	2139	1669
93746978	2851	2145	1667
93747138	2862	2153	1656
93747298	2864	2166	1662
93747458	2864	2148	1656
93747618	2872	2148	1665
93747778	2870	2166	1666
93747938	2860	2149	1667
93748098	2862	2148	1654
93748258	2856	2158	1669
93748418	2856	2144	1671
93748578	2873	2156	1658
93748738	2855	2153	1666
93748898	2862	2141	1654
93749058	2872	2165	1671
93749218	2858	2161	1673
93749378	2855	2152	1672
93749538	2860	2146	1659
93749698	2873	2155	1665
93749858	2864	2140	1667
93750018	2860	2160	1660
93750178	2880	2163	1665
93750338	2870	2150	1659
93750498	2863	2158	1655
93750658	2856	2153	1661
93750818	2860	2143	1669
93750978	2874	2146	1685
93751138	2851	2138	1651
93751298	2848	2153	1667
93751458	2854	2149	1671
93751618	2873	2152	1657
93751778	2871	2147	1673
93751938	2881	2145	1667
93752098	2867	2156	1663
93752258	2865	2142	1657
93752418	2874	2155	1654
93752578	2861	2147	1665
93752738	2865	2142	1662
93752898	2869	2144	1657
93753058	2865	2155	1657
93753218	2870	2153	1672
93753378	2866	2153	1660
93753538	2868	2150	1670
93753698	2863	2157	1678
93753858	2854	2147	1665
93754018	2878	2156	1656
93754178	2885	2162	1660
93754338	2863	2147	1658
93754498	2871	2144	1666
93754658	2861	2146	1668
93754818	2866	2156	1672
93754978	2860	2143	1664
93755138	2865	2152	1657
93755298	2868	2148	1663
93755458	2861	2144	1670
93755618	2871	2147	1658
93755778	2872	2148	1662
93755938	2860	2155	1661
93756098	2866	2155	1674
93756258	2860	2143	1672
93756418	2874	2160	1669
93756578	2866	2145	1672
93756738	2868	2141	1670
93756898	2846	2147	1665
93757058	2858	2154	1659
93757218	2861	2162	1662
93757378	2873	2151	1666
93757538	2869	2154	1664
93757698	2863	2148	1657
93757858	2866	2156	1668
93758018	2851	2154	1658
93758178	2860	2150	1667
93758338	2853	2154	1655
93758498	2856	2163	1636
93758658	2870	2146	1690
93758818	2864	2139	1677
93758978	2874	2156	1654
93759138	2858	2151	1662
93759298	2879	2152	1665
93759458	2858	2160	1656
93759618	2859	2155	1673
93759778	2862	2151	1664
93759938	2858	2151	1650
93760098	2873	2151	1662
93760258	2856	2147	1665
93760418	2870	2158	1657
93760578	2866	2151	1668
93760738	2869	2161	1665
93760898	2872	2159	1655
93761058	2871	2146	1662
93761218	2875	2143	1672
93761378	2867	2129	1661
93761538	2894	2166	1694
93761698	2864	2152	1637
93761858	2863	2153	1670
93762018	2865	2144	1664
93762178	2869	2152	1676
93762338	2871	2137	1674
93762498	2863	2151	1680
93762658	2869	2132	1663
93762818	2883	2151	1666
93762978	2857	2156	1658
93763138	2810	2137	1658
93763298	2911	2173	1724
93763458	2834	2145	1645
93763618	2900	2119	1665
93763778	2847	2155	1664
93763938	2770	2147	1643
93764098	2850	2119	1611
93764258	2821	2123	1711
93764418	2845	2173	1643
93764578	2860	2163	1639
93764738	2865	2147	1664
93764898	2853	2147	1654
93765058	2860	2155	1657
93765218	2851	2150	1649
93765378	2871	2145	1664
93765538	2862	2153	1666
93765698	2867	2157	1671
93765858	2859	2140	1665
93766018	2861	2152	1666
93766178	2857	2149	1662
93766338	2865	2146	1670
93766498	2859	2156	1644
93766658	2867	2144	1667
93766818	2868	2153	1656
93766978	2863	2153	1658
93767138	2867	2147	1668
93767298	2869	2158	1671
93767458	2866	2140	1658
93767618	2866	2152	1668
93767778	2870	2153	1647
93767938	2859	2139	1656
93768098	2874	2159	1645
93768258	2867	2163	1677
93768418	2864	2159	1672
93768578	2883	2355	1596
93768738	2855	2067	1668
93768898	2859	2089	1673
93769058	2856	2159	1652
93769218	2856	2189	1655
93769378	2864	2177	1673
93769538	2868	2120	1640
93769698	2873	2157	1658
93769858	2864	2169	1666
93770018	2855	2157	1663
93770178	2852	2144	1665
93770338	2857	2139	1666
93770498	2858	2149	1651
93770658	2869	2165	1660
93770818	2866	2144	1651
93770978	2873	2149	1665
93771138	2861	2165	1657
93771298	2877	2156	1665
93771458	2860	2138	1656
93771618	2874	2143	1644
93771778	2866	2137	1650
93771938	2868	2154	1653
93772098	2863	2165	1682
93772258	2855	2159	1675
93772418	2852	2152	1671
93772578	2856	2133	1667
93772738	2849	2144	1645
93772898	2857	2139	1643
93773058	2871	2135	1643
93773218	2870	2140	1657
93773378	2870	2141	1669
93773538	2867	2158	1666
93773698	2861	2155	1666
93773858	2856	2159	1664
93774018	2863	2155	1659
93774178	2867	2147	1660
93774338	2863	2156	1655
93774498	2857	2153	1661
93774658	2857	2156	1657
93774818	2867	2148	1674
93774978	2873	2155	1672
93775138	2854	2148	1652
93775298	2875	2144	1662
93775458	2862	2159	1669
93775618	2858	2163	1665
93775778	2857	2153	1660
93775938	2893	2148	1657
93776098	2886	2150	1656
93776258	2864	2158	1646
93776418	2877	2147	1666
93776578	2864	2155	1662
93776738	2861	2146	1660
93776898	2867	2148	1656
93777058	2872	2145	1655
93777218	2856	2154	1663
93777378	2859	2154	1659
93777538	2865	2144	1669
93777698	2870	2155	1661
93777858	2851	2156	1670
93778018	2865	2152	1680
93778178	2862	2146	1669
93778338	2867	2157	1666
93778498	2859	2160	1653
93778658	2864	2151	1665
93778818	2861	2161	1667
93778978	2871	2152	1664
93779138	2863	2151	1656
93779298	2870	2155	1655
93779458	2870	2137	1662
93779618	2875	2152	1665
93779778	2858	2141	1665
93779938	2857	2151	1677
93780098	2856	2152	1670
93780258	2861	2150	1654
93780418	2870	2154	1688
93780578	2872	2159	1662
93780738	2860	2156	1660
93780898	2856	2147	1666
93781058	2866	2161	1652
93781218	2873	2151	1667
93781378	2871	2155	1664
93781538	2862	2146	1652
93781698	2876	2144	1665
93781858	2875	2157	1659
93782018	2903	2152	1733
93782178	2847	2175	1683
93782338	2865	2151	1651
93782498	2867	2159	1651
93782658	2881	2135	1655
93782818	2867	2147	1658
93782978	2861	2165	1663
93783138	2892	2144	1607
93783298	2872	2147	1652
93783458	2864	2156	1657
93783618	2866	2160	1629
93783778	2869	2156	1659
93783938	2860	2155	1672
93784098	2872	2142	1666
93784258	2855	2160	1659
93784418	2879	2163	1663
93784578	2866	2154	1657
93784738	2874	2148	1670
93784898	2865	2150	1656
93785058	2867	2152	1665
93785218	2869	2144	1660
93785378	2865	2155	1669
93785538	2860	2162	1660
93785698	2866	2147	1665
93785858	2852	2160	1666
93786018	2866	2138	1661
93786178	2871	2159	1665
93786338	2865	2145	1660
93786498	2861	2143	1655
93786658	2858	2161	1656
93786818	2866	2137	1666
93786978	2879	2149	1678
93787138	2871	2157	1665
93787298	2861	2146	1675
93787458	2866	2144	1659
93787618	2863	2156	1664
93787778	2862	2146	1650
93787938	2864	2131	1646
93788098	2865	2155	1642
93788258	2860	2146	1675
93788418	2860	2159	1658
93788578	2866	2150	1668
93788738	2858	2140	1645
93788898	2861	2155	1654
93789058	2878	2165	1661
93789218	2876	2146	1672
93789378	2860	2156	1678
93789538	2865	2155	1674
93789698	2859	2142	1661
93789858	2865	2141	1660
93790018	2869	2151	1651
93790178	2879	2159	1657
93790338	2860	2157	1650
93790498	2869	2159	1652
93790658	2861	2144	1652
93790818	2865	2154	1658
93790978	2867	2162	1665
93791138	2864	2156	1672
93791298	2855	2150	1651
93791458	2875	2147	1665
93791618	2861	2170	1654
93791778	2862	2150	1658
93791938	2876	2152	1662
93792098	2858	2149	1654
93792258	2878	2152	1660
93792418	2863	2138	1664
93792578	2874	2156	1656
93792738	2867	2154	1661
93792898	2870	2154	1657
93793058	2864	2152	1667
93793218	2864	2149	1651
93793378	2857	2154	1660
93793538	2868	2160	1669
93793698	2863	2128	1670
93793858	2867	2145	1677
93794018	2875	2144	1661
93794178	2861	2156	1660
93794338	2872	2155	1653
93794498	2863	2149	1662
93794658	2861	2152	1665
93794818	2868	2138	1661
93794978	2865	2146	1664
93795138	2858	2153	1666
93795298	2868	2150	1664
93795458	2868	2159	1663
93795618	2870	2152	1644
93795778	2873	2167	1653
93795938	2862	2153	1657
93796098	2856	2142	1642
93796258	2862	2150	1665
93796418	2864	2148	1664
93796578	2863	2141	1658
93796738	2873	2138	1659
93796898	2868	2159	1656
93797058	2873	2147	1673
93797218	2864	2151	1650
93797378	2859	2153	1663
93797538	2859	2149	1662
93797698	2864	2158	1649
93797858	2878	2156	1657
93798018	2862	2161	1659
93798178	2866	2153	1661
93798338	2876	2134	1659
93798498	2872	2154	1662
93798658	2872	2145	1637
93798818	2867	2156	1667
93798978	2863	2159	1646
93799138	2870	2138	1662
93799298	2868	2148	1648
93799458	2864	2147	1655
93799618	2865	2160	1663
93799778	2862	2155	1659
93799938	2868	2155	1649
93800098	2875	2164	1660
93800258	2866	2152	1660
93800418	2867	2146	1658
93800578	2861	2152	1656
93800738	2863	2145	1680
93800898	2852	2149	1648
93801058	2869	2134	1652
93801218	2861	2148	1661
93801378	2868	2145	1667
93801538	2865	2149	1651
93801698	2860	2150	1669
93801858	2874	2155	1664
93802018	2866	2148	1649
93802178	2859	2151	1660
93802338	2871	2157	1661
93802498	2858	2167	1672
93802658	2842	2127	1684
93802818	2872	2154	1646
93802978	2869	2150	1662
93803138	2867	2171	1656
93803298	2862	2145	1663
93803458	2855	2148	1655
93803618	2850	2163	1671
93803778	2864	2146	1655
93803938	2870	2157	1655
93804098	2843	2150	1642
93804258	2849	2162	1654
93804418	2859	2140	1661
93804578	2869	2152	1651
93804738	2872	2154	1652
93804898	2873	2150	1647
93805058	2868	2156	1658
93805218	2868	2152	1655
93805378	2855	2156	1666
93805538	2864	2137	1657
93805698	2863	2143	1651
93805858	2868	2143	1657
93806018	2860	2146	1655
93806178	2863	2151	1661
93806338	2869	2147	1656
93806498	2863	2154	1659
93806658	2869	2151	1660
93806818	2865	2160	1664
93806978	2855	2137	1667
93807138	2865	2152	1650
93807298	2866	2145	1654
93807458	2879	2151	1668
93807618	2850	2153	1672
93807778	2870	2143	1652
93807938	2858	2143	1655
93808098	2874	2140	1668
93808258	2869	2145	1660
93808418	2869	2135	1663
93808578	2863	2147	1657
93808738	2863	2146	1661
93808898	2859	2158	1655
93809058	2862	2149	1659
93809218	2868	2145	1644
93809378	2874	2133	1663
93809538	2876	2146	1655
93809698	2859	2155	1664
93809858	2853	2152	1661
93810018	2861	2147	1649
93810178	2870	2166	1655
93810338	2865	2150	1662
93810498	2862	2149	1664
93810658	2862	2147	1650
93810818	2861	2165	1646
93810978	2875	2159	1671
93811138	2870	2153	1664
93811298	2872	2157	1656
93811458	2862	2158	1674
93811618	2863	2155	1673
93811778	2852	2142	1659
93811938	2858	2140	1659
93812098	2865	2150	1663
93812258	2877	2147	1653
93812418	2877	2152	1647
93812578	2868	2144	1649
93812738	2860	2152	1656
93812898	2880	2149	1664
93813058	2868	2155	1660
93813218	2872	2142	1663
93813378	2871	2156	1656
93813538	2862	2163	1662
93813698	2866	2153	1657
93813858	2871	2159	1676
93814018	2876	2144	1661
93814178	2879	2151	1663
93814338	2856	2142	1644
93814498	2861	2146	1662
93814658	2880	2152	1648
93814818	2875	2141	1655
93814978	2862	2158	1668
93815138	2863	2161	1666
93815298	2857	2146	1661
93815458	2861	2141	1662
93815618	2877	2149	1665
93815778	2875	2158	1667
93815938	2862	2149	1653
93816098	2869	2154	1648
93816258	2865	2140	1662
93816418	2856	2152	1644
93816578	2856	2144	1676
93816738	2870	2151	1666
93816898	2863	2157	1663
93817058	2871	2140	1652
93817218	2868	2147	1653
93817378	2869	2137	1667
93817538	2864	2144	1660
93817698	2871	2139	1651
93817858	2861	2143	1658
93818018	2883	2155	1656
93818178	2869	2138	1655
93818338	2876	2147	1665
93818498	2865	2151	1658
93818658	2868	2154	1665
93818818	2873	2150	1671
93818978	2869	2151	1658
93819138	2860	2167	1657
93819298	2870	2146	1670
93819458	2860	2146	1667
93819618	2860	2144	1671
93819778	2866	2148	1649
93819938	2870	2135	1660
93820098	2863	2159	1672
93820258	2861	2155	1654
93820418	2865	2153	1652
93820578	2874	2163	1657
93820738	2867	2142	1656
93820898	2866	2154	1659
93821058	2869	2150	1660
93821218	2877	2150	1657
93821378	2865	2150	1665
93821538	2859	2144	1664
93821698	2862	2143	1655
93821858	2866	2169	1665
93822018	2865	2153	1683
93822178	2868	2153	1664
93822338	2873	2146	1649
93822498	2860	2154	1663
93822658	2866	2152	1650
93822818	2877	2150	1659
93822978	2858	2156	1680
93823138	2869	2174	1639
93823298	2876	2149	1658
93823458	2868	2146	1670
93823618	2878	2165	1660
93823778	2844	2127	1654
93823938	2863	2132	1604
93824098	2837	2154	1637
93824258	2873	2152	1657
93824418	2865	2146	1671
93824578	2881	2160	1666
93824738	2852	2145	1664
93824898	2850	2148	1653
93825058	2862	2137	1654
93825218	2868	2139	1669
93825378	2868	2156	1674
93825538	2861	2145	1672
93825698	2858	2148	1655
93825858	2862	2148	1667
93826018	2866	2158	1666
93826178	2859	2146	1661
93826338	2877	2159	1656
93826498	2866	2152	1659
93826658	2879	2151	1674
93826818	2854	2147	1661
93826978	2866	2160	1661
93827138	2870	2144	1664
93827298	2847	2153	1659
93827458	2863	2151	1671
93827618	2866	2139	1665
93827778	2856	2145	1668
93827938	2869	2151	1676
93828098	2858	2150	1645
93828258	2873	2150	1653
93828418	2866	2146	1656
93828578	2868	2155	1648
93828738	2857	2157	1655
93828898	2865	2149	1664
93829058	2861	2148	1658
93829218	2867	2154	1668
93829378	2860	2142	1665
93829538	2856	2147	1651
93829698	2867	2140	1664
93829858	2865	2151	1665
93830018	2867	2167	1646
93830178	2867	2138	1662
93830338	2866	2147	1654
93830498	2865	2158	1653
93830658	2860	2157	1659
93830818	2868	2150	1643
93830978	2859	2152	1668
93831138	2863	2149	1670
93831298	2867	2155	1644
93831458	2862	2155	1659
93831618	2863	2153	1664
93831778	2862	2165	1671
93831938	2877	2156	1661
93832098	2872	2146	1659
93832258	2861	2153	1657
93832418	2874	2144	1643
93832578	2865	2146	1650
93832738	2877	2147	1654
93832898	2858	2152	1656
93833058	2878	2142	1661
93833218	2868	2159	1667
93833378	2866	2156	1670
93833538	2863	2144	1662
93833698	2860	2145	1656
93833858	2868	2159	1665
93834018	2871	2143	1677
93834178	2879	2145	1661
93834338	2867	2140	1647
93834498	2861	2158	1651
93834658	2871	2156	1662
93834818	2872	2157	1650
93834978	2855	2145	1666
93835138	2852	2151	1663
93835298	2876	2148	1674
93835458	2861	2143	1660
93835618	2868	2141	1652
93835778	2870	2161	1667
93835938	2855	2143	1667
93836098	2849	2146	1663
93836258	2860	2145	1661
93836418	2876	2150	1645
93836578	2872	2148	1672
93836738	2849	2148	1667
93836898	2855	2161	1669
93837058	2866	2136	1649
93837218	2867	2153	1657
93837378	2866	2155	1663
93837538	2872	2140	1653
93837698	2859	2160	1653
93837858	2856	2153	1647
93838018	2860	2158	1660
93838178	2865	2148	1672
93838338	2875	2154	1663
93838498	2862	2151	1660
93838658	2870	2149	1653
93838818	2868	2150	1655
93838978	2864	2158	1670
93839138	2871	2159	1660
93839298	2862	2153	1654
93839458	2884	2155	1647
93839618	2869	2148	1666
93839778	2858	2151	1661
93839938	2868	2141	1655
93840098	2867	2158	1664
93840258	2874	2142	1660
93840418	2866	2156	1668
93840578	2868	2152	1669
93840738	2864	2150	1666
93840898	2862	2144	1668
93841058	2862	2142	1650
93841218	2863	2125	1679
93841378	2867	2149	1634
93841538	2866	2136	1658
93841698	2863	2149	1665
93841858	2872	2154	1658
93842018	2884	2150	1668
93842178	2874	2137	1650
93842338	2881	2159	1662
93842498	2874	2160	1656
93842658	2867	2151	1653
93842818	2859	2162	1661
93842978	2870	2143	1657
93843138	2869	2149	1660
93843298	2860	2141	1662
93843458	2832	2171	1633
93843618	2854	2152	1641
93843778	2857	2149	1655
93843938	2858	2147	1659
93844098	2893	2119	1654
93844258	2853	2142	1661
93844418	2870	2161	1656
93844578	2846	2140	1676
93844738	2859	2148	1671
93844898	2857	2155	1658
93845058	2831	2162	1625
93845218	2871	2149	1652
93845378	2871	2157	1650
93845538	2855	2150	1658
93845698	2860	2154	1651
93845858	2867	2157	1666
93846018	2862	2159	1645
93846178	2878	2139	1670
93846338	2871	2145	1655
93846498	2875	2151	1666
93846658	2854	2141	1675
93846818	2859	2144	1655
93846978	2868	2151	1660
93847138	2864	2140	1655
93847298	2866	2136	1659
93847458	2872	2151	1653
93847618	2875	2152	1656
93847778	2865	2146	1673
93847938	2851	2145	1672
93848098	2862	2149	1660
93848258	2861	2146	1677
93848418	2873	2142	1660
93848578	2866	2158	1655
93848738	2868	2147	1665
93848898	2848	2147	1658
93849058	2870	2152	1662
93849218	2854	2146	1669
93849378	2861	2155	1653
93849538	2862	2149	1669
93849698	2871	2155	1644
93849858	2856	2150	1654
93850018	2860	2146	1656
93850178	2864	2156	1658
93850338	2870	2149	1665
93850498	2877	2155	1649
93850658	2869	2161	1659
93850818	2862	2150	1668
93850978	2863	2151	1645
93851138	2867	2154	1659
93851298	2867	2143	1652
93851458	2864	2155	1662
93851618	2884	2148	1661
93851778	2874	2139	1659
93851938	2866	2135	1665
93852098	2871	2161	1669
93852258	2863	2163	1674
93852418	2866	2141	1649
93852578	2878	2145	1650
93852738	2871	2157	1660
93852898	2874	2153	1660
93853058	2871	2148	1665
93853218	2861	2153	1662
93853378	2857	2143	1667
93853538	2855	2151	1647
93853698	2867	2160	1664
93853858	2867	2146	1645
93854018	2863	2153	1652
93854178	2868	2134	1652
93854338	2882	2153	1646
93854498	2869	2134	1656
93854658	2871	2149	1664
93854818	2859	2134	1659
93854978	2873	2160	1665
93855138	2863	2148	1659
93855298	2860	2144	1661
93855458	2863	2141	1654
93855618	2871	2139	1655
93855778	2865	2154	1661
93855938	2866	2147	1652
93856098	2867	2160	1659
93856258	2872	2147	1660
93856418	2851	2141	1655
93856578	2862	2161	1653
93856738	2866	2140	1655
93856898	2847	2135	1652
93857058	2874	2152	1653
93857218	2860	2144	1653
93857378	2870	2145	1659
93857538	2878	2157	1665
93857698	2864	2155	1662
93857858	2861	2150	1660
93858018	2857	2155	1659
93858178	2879	2151	1654
93858338	2861	2148	1661
93858498	2865	2137	1652
93858658	2880	2151	1664
93858818	2860	2142	1664
93858978	2865	2152	1659
93859138	2869	2154	1650
93859298	2875	2151	1662
93859458	2871	2156	1663
93859618	2861	2152	1660
93859778	2872	2152	1653
93859938	2854	2146	1660
93860098	2859	2151	1668
93860258	2859	2153	1651
93860418	2867	2155	1653
93860578	2872	2150	1673
93860738	2862	2169	1654
93860898	2868	2155	1664
93861058	2850	2152	1651
93861218	2863	2147	1662
93861378	2872	2148	1651
93861538	2854	2154	1665
93861698	2867	2150	1650
93861858	2871	2156	1658
93862018	2857	2147	1654
93862178	2869	2157	1668
93862338	2855	2154	1664
93862498	2866	2157	1667
93862658	2866	2169	1660
93862818	2861	2131	1662
93862978	2870	2151	1663
93863138	2864	2158	1664
93863298	2867	2138	1653
93863458	2867	2148	1662
93863618	2866	2138	1667
93863778	2853	2165	1654
93863938	2875	2179	1657
93864098	2832	2101	1680
93864258	2877	2148	1646
93864418	2857	2146	1662
93864578	2896	2137	1649
93864738	2856	2143	1645
93864898	2852	2145	1668
93865058	2911	2171	1681
93865218	2871	2155	1664
93865378	2852	2148	1660
93865538	2847	2150	1643
93865698	2886	2151	1652
93865858	2869	2148	1663
93866018	2880	2150	1652
93866178	2850	2153	1661
93866338	2872	2139	1670
93866498	2869	2164	1655
93866658	2872	2151	1673
93866818	2860	2158	1656
93866978	2870	2137	1657
93867138	2867	2150	1667
93867298	2854	2145	1658
93867458	2883	2140	1639
93867618	2863	2158	1664
93867778	2873	2143	1670
93867938	2869	2149	1660
93868098	2869	2151	1652
93868258	2869	2144	1643
93868418	2862	2156	1655
93868578	2870	2140	1655
93868738	2881	2148	1651
93868898	2866	2141	1675
93869058	2870	2158	1654
93869218	2867	2147	1669
93869378	2865	2138	1653
93869538	2872	2151	1650
93869698	2868	2151	1660
93869858	2869	2153	1670
93870018	2854	2147	1653
93870178	2865	2152	1658
93870338	2868	2146	1660
93870498	2853	2147	1661
93870658	2855	2142	1661
93870818	2857	2153	1653
93870978	2851	2154	1654
93871138	2875	2148	1652
93871298	2863	2165	1665
93871458	2863	2154	1679
93871618	2852	2162	1671
93871778	2849	2151	1645
93871938	2874	2156	1651
93872098	2870	2156	1664
93872258	2856	2159	1652
93872418	2869	2140	1669
93872578	2853	2147	1656
93872738	2864	2158	1670
93872898	2849	2146	1666
93873058	2871	2157	1680
93873218	2871	2159	1661
93873378	2861	2134	1668
93873538	2866	2150	1651
93873698	2872	2146	1678
93873858	2854	2147	1660
93874018	2861	2159	1672
93874178	2871	2144	1668
93874338	2867	2154	1668
93874498	2859	2156	1655
93874658	2872	2151	1663
93874818	2872	2143	1661
93874978	2861	2154	1662
93875138	2868	2147	1663
93875298	2862	2152	1657
93875458	2873	2146	1653
93875618	2878	2140	1650
93875778	2879	2140	1653
93875938	2869	2148	1656
93876098	2866	2143	1645
93876258	2863	2152	1658
93876418	2874	2152	1658
93876578	2858	2150	1668
93876738	2857	2165	1659
93876898	2862	2158	1651
93877058	2872	2139	1636
93877218	2854	2157	1706
93877378	2875	2145	1654
93877538	2867	2149	1664
93877698	2870	2165	1665
93877858	2859	2137	1653
93878018	2875	2160	1657
93878178	2867	2163	1667
93878338	2852	2138	1657
93878498	2857	2159	1674
93878658	2868	2150	1666
93878818	2877	2140	1658
93878978	2868	2153	1656
93879138	2859	2149	1659
93879298	2872	2155	1647
93879458	2864	2135	1655
93879618	2864	2139	1677
93879778	2865	2161	1663
93879938	2859	2143	1664
93880098	2872	2146	1669
93880258	2868	2158	1657
93880418	2867	2151	1654
93880578	2867	2155	1661
93880738	2866	2157	1669
93880898	2869	2144	1655
93881058	2867	2144	1659
93881218	2863	2141	1675
93881378	2862	2157	1648
93881538	2864	2159	1669
93881698	2839	2168	1667
93881858	2873	2161	1663
93882018	2861	2168	1665
93882178	2856	2158	1677
93882338	2858	2161	1651
93882498	2864	2169	1644
93882658	2874	2148	1664
93882818	2862	2151	1652
93882978	2864	2143	1671
93883138	2864	2138	1658
93883298	2861	2147	1659
93883458	2868	2149	1659
93883618	2871	2151	1657
93883778	2867	2151	1647
93883938	2870	2150	1656
93884098	2859	2149	1660
93884258	2864	2141	1668
93884418	2864	2130	1660
93884578	2869	2131	1622
93884738	2867	2163	1648
93884898	2880	2160	1662
93885058	2846	2145	1644
93885218	2861	2134	1664
93885378	2861	2143	1656
93885538	2873	2128	1637
93885698	2860	2148	1668
93885858	2866	2154	1664
93886018	2848	2146	1678
93886178	2862	2144	1680
93886338	2857	2151	1676
93886498	2863	2142	1651
93886658	2874	2150	1650
93886818	2874	2156	1655
93886978	2858	2142	1658
93887138	2864	2161	1677
93887298	2867	2158	1661
93887458	2860	2143	1664
93887618	2861	2157	1653
93887778	2855	2159	1666
93887938	2866	2147	1662
93888098	2872	2146	1672
93888258	2866	2154	1651
93888418	2868	2128	1661
93888578	2862	2156	1656
93888738	2879	2136	1653
93888898	2858	2135	1662
93889058	2850	2152	1654
93889218	2872	2151	1656
93889378	2870	2149	1637
93889538	2868	2146	1664
93889698	2876	2143	1641
93889858	2854	2144	1671
93890018	2866	2148	1683
93890178	2866	2156	1667
93890338	2862	2148	1667
93890498	2864	2153	1644
93890658	2867	2155	1674
93890818	2867	2153	1663
93890978	2867	2145	1666
93891138	2861	2167	1659
93891298	2875	2139	1659
93891458	2868	2156	1661
93891618	2858	2124	1669
93891778	2870	2147	1671
93891938	2853	2154	1660
93892098	2871	2144	1663
93892258	2861	2152	1661
93892418	2866	2165	1669
93892578	2850	2147	1661
93892738	2861	2148	1658
93892898	2861	2160	1678
93893058	2859	2158	1673
93893218	2855	2149	1656
93893378	2878	2157	1668
93893538	2854	2145	1662
93893698	2864	2146	1650
93893858	2860	2140	1653
93894018	2862	2155	1656
93894178	2865	2152	1657
93894338	2863	2133	1666
93894498	2862	2146	1662
93894658	2874	2143	1660
93894818	2862	2163	1668
93894978	2861	2163	1667
93895138	2864	2143	1658
93895298	2871	2149	1663
93895458	2877	2163	1658
93895618	2865	2147	1666
93895778	2857	2159	1661
93895938	2870	2142	1655
93896098	2866	2162	1675
93896258	2860	2154	1652
93896418	2862	2149	1654
93896578	2851	2148	1651
93896738	2867	2157	1652
93896898	2858	2144	1656
93897058	2869	2158	1659
93897218	2864	2154	1664
93897378	2867	2149	1653
93897538	2871	2146	1654
93897698	2855	2150	1658
93897858	2867	2142	1661
93898018	2870	2156	1664
93898178	2863	2151	1670
93898338	2862	2145	1662
93898498	2875	2151	1668
93898658	2862	2143	1673
93898818	2864	2157	1661
93898978	2862	2146	1654
93899138	2859	2144	1670
93899298	2860	2158	1666
93899458	2870	2155	1668
93899618	2852	2146	1661
93899778	2873	2160	1656
93899938	2874	2142	1665
93900098	2864	2148	1659
93900258	2872	2139	1656
93900418	2879	2152	1659
93900578	2872	2154	1674
93900738	2857	2154	1661
93900898	2868	2154	1657
93901058	2870	2159	1680
93901218	2859	2146	1645
93901378	2866	2164	1660
93901538	2859	2156	1686
93901698	2866	2152	1658
93901858	2863	2154	1676
93902018	2867	2156	1674
93902178	2867	2138	1659
93902338	2874	2154	1668
93902498	2864	2145	1656
93902658	2862	2162	1666
93902818	2867	2151	1652
93902978	2862	2159	1658
93903138	2863	2153	1651
93903298	2872	2138	1656
93903458	2865	2140	1669
93903618	2862	2158	1655
93903778	2870	2145	1653
93903938	2860	2140	1651
93904098	2866	2146	1656
93904258	2860	2138	1654
93904418	2854	2154	1652
93904578	2857	2155	1668
93904738	2862	2138	1664
93904898	2869	2172	1634
93905058	2887	2146	1660
93905218	2852	2141	1656
93905378	2862	2158	1658
93905538	2905	2115	1651
93905698	2851	2149	1644
93905858	2856	2147	1669
93906018	2847	2100	1667
93906178	2864	2155	1668
93906338	2874	2139	1653
93906498	2869	2146	1654
93906658	2861	2138	1646
93906818	2868	2160	1672
93906978	2868	2157	1667
93907138	2865	2142	1644
93907298	2863	2146	1651
93907458	2864	2158	1658
93907618	2866	2160	1654
93907778	2875	2157	1659
93907938	2863	2150	1656
93908098	2867	2157	1661
93908258	2871	2152	1657
93908418	2869	2146	1661
93908578	2862	2153	1666
93908738	2865	2153	1670
93908898	2868	2157	1664
93909058	2871	2150	1659
93909218	2869	2149	1662
93909378	2860	2147	1663
93909538	2865	2160	1659
93909698	2863	2166	1657
93909858	2870	2160	1659
93910018	2851	2158	1667
93910178	2869	2155	1674
93910338	2863	2154	1665
93910498	2871	2161	1650
93910658	2875	2153	1679
93910818	2857	2150	1653
93910978	2862	2151	1661
93911138	2878	2155	1669
93911298	2859	2151	1653
93911458	2869	2156	1670
93911618	2859	2147	1661
93911778	2868	2161	1654
93911938	2865	2148	1665
93912098	2857	2146	1657
93912258	2870	2147	1654
93912418	2855	2149	1670
93912578	2873	2157	1656
93912738	2854	2148	1653
93912898	2880	2148	1669
93913058	2873	2152	1661
93913218	2872	2136	1674
93913378	2868	2149	1663
93913538	2865	2159	1669
93913698	2864	2142	1653
93913858	2867	2163	1664
93914018	2859	2153	1669
93914178	2864	2155	1660
93914338	2857	2142	1661
93914498	2881	2159	1678
93914658	2869	2148	1675
93914818	2857	2155	1662
93914978	2863	2160	1668
93915138	2856	2152	1672
93915298	2874	2155	1659
93915458	2879	2151	1667
93915618	2870	2152	1663
93915778	2866	2151	1665
93915938	2861	2162	1663
93916098	2881	2136	1663
93916258	2866	2156	1675
93916418	2865	2150	1651
93916578	2860	2148	1642
93916738	2862	2164	1668
93916898	2865	2154	1652
93917058	2875	2161	1664
93917218	2877	2152	1642
93917378	2866	2153	1663
93917538	2864	2150	1669
93917698	2859	2140	1673
93917858	2865	2159	1672
93918018	2868	2143	1666
93918178	2870	2148	1657
93918338	2876	2152	1662
93918498	2870	2144	1670
93918658	2868	2158	1659
93918818	2862	2149	1651
93918978	2866	2158	1655
93919138	2870	2140	1648
93919298	2866	2151	1673
93919458	2865	2142	1658
93919618	2868	2149	1666
93919778	2863	2148	1658
93919938	2859	2141	1667
93920098	2852	2146	1671
93920258	2868	2140	1663
93920418	2863	2144	1658
93920578	2874	2160	1655
93920738	2868	2142	1665
93920898	2878	2163	1649
93921058	2868	2142	1660
93921218	2878	2161	1665
93921378	2863	2154	1652
93921538	2873	2147	1660
93921698	2863	2137	1664
93921858	2856	2151	1660
93922018	2853	2158	1658
93922178	2858	2146	1657
93922338	2868	2156	1667
93922498	2874	2147	1658
93922658	2870	2151	1644
93922818	2851	2159	1654
93922978	2862	2150	1656
93923138	2868	2146	1662
93923298	2866	2150	1662
93923458	2870	2149	1661
93923618	2871	2155	1666
93923778	2860	2155	1659
93923938	2869	2155	1677
93924098	2857	2153	1664
93924258	2859	2158	1655
93924418	2861	2162	1654
93924578	2883	2141	1663
93924738	2862	2163	1656
93924898	2877	2155	1658
93925058	2861	2148	1660
93925218	2868	2157	1663
93925378	2824	2150	1647
93925538	2881	2151	1702
93925698	2854	2158	1663
93925858	2871	2150	1659
93926018	2855	2164	1632
93926178	2860	2151	1652
93926338	2867	2165	1662
93926498	2860	2154	1663
93926658	2862	2156	1664
93926818	2860	2162	1655
93926978	2820	2131	1676
93927138	2867	2164	1661
93927298	2864	2150	1650
93927458	2872	2148	1658
93927618	2865	2144	1661
93927778	2862	2159	1672
93927938	2872	2152	1662
93928098	2864	2153	1648
93928258	2860	2143	1655
93928418	2869	2160	1645
93928578	2867	2155	1665
93928738	2844	2150	1669
93928898	2864	2151	1663
93929058	2864	2160	1651
93929218	2879	2146	1657
93929378	2862	2138	1669
93929538	2858	2160	1683
93929698	2871	2144	1673
93929858	2859	2146	1655
93930018	2877	2151	1664
93930178	2867	2144	1651
93930338	2878	2147	1674
93930498	2857	2147	1664
93930658	2860	2144	1656
93930818	2865	2149	1663
93930978	2865	2163	1674
93931138	2847	2148	1672
93931298	2866	2157	1668
93931458	2850	2139	1657
93931618	2872	2157	1649
93931778	2867	2142	1658
93931938	2869	2148	1667
93932098	2870	2142	1663
93932258	2877	2151	1659
93932418	2871	2152	1653
93932578	2861	2164	1665
93932738	2867	2148	1661
93932898	2863	2145	1652
93933058	2860	2148	1649
93933218	2863	2158	1661
93933378	2864	2166	1660
93933538	2874	2147	1679
93933698	2865	2143	1676
93933858	2869	2158	1662
93934018	2856	2155	1653
93934178	2861	2155	1677
93934338	2866	2159	1651
93934498	2872	2147	1659
93934658	2873	2152	1653
93934818	2874	2153	1652
93934978	2866	2156	1653
93935138	2871	2162	1652
93935298	2863	2154	1664
93935458	2853	2159	1672
93935618	2865	2158	1662
93935778	2865	2155	1673
93935938	2855	2139	1662
93936098	2872	2144	1666
93936258	2863	2134	1660
93936418	2863	2152	1656
93936578	2876	2148	1658
93936738	2881	2152	1657
93936898	2874	2159	1660
93937058	2863	2152	1641
93937218	2855	2144	1659
93937378	2855	2151	1657
93937538	2873	2164	1674
93937698	2871	2157	1656
93937858	2874	2150	1666
93938018	2862	2148	1658
93938178	2873	2152	1667
93938338	2865	2147	1654
93938498	2868	2144	1659
93938658	2876	2152	1659
93938818	2856	2158	1658
93938978	2863	2164	1656
93939138	2867	2159	1658
93939298	2864	2146	1672
93939458	2871	2145	1671
93939618	2857	2155	1679
93939778	2861	2141	1646
93939938	2884	2148	1661
93940098	2869	2144	1668
93940258	2856	2172	1655
93940418	2877	2143	1652
93940578	2871	2147	1655
93940738	2866	2155	1668
93940898	2855	2157	1647
93941058	2861	2148	1646
93941218	2866	2157	1647
93941378	2860	2147	1649
93941538	2864	2143	1665
93941698	2876	2150	1667
93941858	2867	2151	1655
93942018	2869	2139	1671
93942178	2867	2147	1651
93942338	2859	2149	1654
93942498	2870	2149	1663
93942658	2874	2157	1670
93942818	2878	2145	1651
93942978	2867	2154	1663
93943138	2866	2151	1654
93943298	2864	2137	1664
93943458	2858	2165	1649
93943618	2861	2145	1664
93943778	2869	2148	1658
93943938	2865	2159	1665
93944098	2855	2157	1650
93944258	2864	2142	1651
93944418	2871	2150	1655
93944578	2872	2155	1673
93944738	2865	2153	1671
93944898	2875	2155	1663
93945058	2859	2153	1665
93945218	2866	2152	1668
93945378	2868	2147	1653
93945538	2865	2143	1655
93945698	2865	2141	1670
93945858	2881	2159	1656
93946018	2850	2171	1675
93946178	2870	2151	1666
93946338	2848	2134	1680
93946498	2869	2146	1665
93946658	2882	2139	1648
93946818	2847	2146	1668
93946978	2882	2156	1655
93947138	2863	2146	1657
93947298	2828	2146	1639
93947458	2861	2137	1673
93947618	2854	2150	1667
93947778	2870	2162	1652
93947938	2864	2151	1658
93948098	2864	2150	1666
93948258	2872	2149	1655
93948418	2863	2154	1658
93948578	2867	2150	1657
93948738	2852	2140	1643
93948898	2876	2146	1673
93949058	2871	2161	1667
93949218	2855	2151	1659
93949378	2870	2153	1657
93949538	2866	2154	1661
93949698	2870	2151	1646
93949858	2874	2150	1659
93950018	2865	2158	1659
93950178	2863	2148	1659
93950338	2862	2155	1651
93950498	2857	2151	1643
93950658	2867	2158	1668
93950818	2860	2152	1659
93950978	2870	2151	1660
93951138	2873	2152	1645
93951298	2872	2155	1663
93951458	2869	2148	1663
93951618	2869	2158	1656
93951778	2871	2158	1665
93951938	2860	2159	1667
93952098	2858	2151	1652
93952258	2862	2144	1660
93952418	2867	2149	1680
93952578	2867	2146	1669
93952738	2823	2153	1563
93952898	2824	2161	1598
93953058	2883	2139	1650
93953218	2836	2173	1745
93953378	2866	2172	1735
93953538	2864	2150	1681
93953698	2870	2150	1620
93953858	2858	2140	1606
93954018	2849	2147	1622
93954178	2888	2158	1686
93954338	2864	2154	1700
93954498	2868	2145	1687
93954658	2878	2146	1647
93954818	2875	2134	1661
93954978	2875	2132	1675
93955138	2851	2157	1679
93955298	2855	2154	1654
93955458	2869	2146	1647
93955618	2862	2152	1664
93955778	2859	2150	1686
93955938	2865	2161	1699
93956098	2872	2135	1680
93956258	2872	2149	1685
93956418	2875	2162	1678
93956578	2857	2158	1684
93956738	2860	2157	1672
93956898	2855	2166	1676
93957058	2861	2147	1662
93957218	2868	2154	1677
93957378	2856	2159	1663
93957538	2863	2162	1660
93957698	2866	2154	1645
93957858	2852	2145	1649
93958018	2857	2154	1672
93958178	2865	2144	1659
93958338	2875	2159	1667
93958498	2869	2137	1660
93958658	2860	2145	1657
93958818	2871	2153	1676
93958978	2866	2143	1654
93959138	2864	2149	1655
93959298	2868	2148	1663
93959458	2858	2148	1647
93959618	2862	2146	1667
93959778	2865	2159	1662
93959938	2860	2145	1651
93960098	2873	2151	1661
93960258	2864	2162	1667
93960418	2845	2145	1666
93960578	2871	2149	1647
93960738	2865	2150	1646
93960898	2861	2157	1667
93961058	2868	2145	1651
93961218	2862	2140	1667
93961378	2860	2161	1676
93961538	2861	2152	1656
93961698	2866	2151	1671
93961858	2864	2147	1665
93962018	2883	2151	1671
93962178	2866	2147	1659
93962338	2856	2149	1664
93962498	2865	2162	1649
93962658	2875	2157	1660
93962818	2856	2140	1665
93962978	2866	2154	1669
93963138	2871	2146	1662
93963298	2873	2144	1660
93963458	2878	2154	1677
93963618	2855	2156	1663
93963778	2866	2144	1669
93963938	2864	2148	1662
93964098	2865	2154	1655
93964258	2855	2146	1661
93964418	2862	2157	1676
93964578	2866	2149	1668
93964738	2862	2146	1668
93964898	2855	2156	1651
93965058	2870	2163	1672
93965218	2860	2150	1659
93965378	2854	2151	1670
93965538	2871	2141	1657
93965698	2876	2154	1664
93965858	2867	2151	1661
93966018	2851	2147	1652
93966178	2862	2151	1663
93966338	2893	2158	1687
93966498	2879	2148	1626
93966658	2864	2150	1664
93966818	2859	2156	1651
93966978	2870	2170	1646
93967138	2876	2139	1655
93967298	2863	2158	1655
93967458	2861	2144	1665
93967618	2877	2148	1659
93967778	2870	2106	1664
93967938	2853	2139	1695
93968098	2867	2159	1664
93968258	2861	2147	1654
93968418	2856	2143	1667
93968578	2880	2154	1662
93968738	2872	2157	1662
93968898	2869	2149	1662
93969058	2873	2158	1652
93969218	2881	2148	1651
93969378	2871	2147	1665
93969538	2856	2155	1660
93969698	2868	2143	1664
93969858	2869	2155	1651
93970018	2871	2160	1664
93970178	2868	2153	1661
93970338	2870	2146	1656
93970498	2865	2148	1661
93970658	2868	2137	1660
93970818	2887	2159	1658
93970978	2866	2167	1666
93971138	2858	2141	1657
93971298	2863	2152	1660
93971458	2862	2150	1651
93971618	2875	2157	1660
93971778	2862	2147	1665
93971938	2871	2153	1677
93972098	2861	2151	1657
93972258	2864	2141	1668
93972418	2867	2149	1653
93972578	2867	2144	1666
93972738	2880	2151	1654
93972898	2876	2149	1649
93973058	2878	2161	1661
93973218	2873	2146	1654
93973378	2871	2149	1660
93973538	2871	2154	1668
93973698	2860	2140	1652
93973858	2874	2142	1643
93974018	2869	2153	1651
93974178	2870	2158	1653
93974338	2864	2146	1661
93974498	2876	2145	1658
93974658	2846	2135	1657
93974818	2875	2160	1652
93974978	2861	2154	1656
93975138	2852	2171	1655
93975298	2869	2156	1640
93975458	2859	2156	1660
93975618	2861	2140	1651
93975778	2873	2155	1655
93975938	2865	2141	1665
93976098	2867	2156	1657
93976258	2874	2153	1649
93976418	2848	2152	1656
93976578	2877	2146	1670
93976738	2857	2155	1672
93976898	2870	2147	1668
93977058	2875	2144	1662
93977218	2874	2162	1653
93977378	2859	2155	1667
93977538	2859	2149	1656
93977698	2867	2156	1667
93977858	2855	2168	1656
93978018	2871	2144	1663
93978178	2859	2154	1663
93978338	2874	2148	1644
93978498	2858	2137	1659
93978658	2876	2155	1658
93978818	2875	2150	1655
93978978	2868	2164	1664
93979138	2866	2156	1677
93979298	2868	2148	1666
93979458	2861	2153	1675
93979618	2872	2155	1674
93979778	2873	2149	1650
93979938	2865	2139	1658
93980098	2869	2158	1677
93980258	2867	2139	1677
93980418	2877	2154	1667
93980578	2862	2140	1652
93980738	2865	2158	1660
93980898	2865	2155	1655
93981058	2854	2152	1651
93981218	2871	2147	1655
93981378	2858	2148	1658
93981538	2856	2157	1677
93981698	2866	2159	1656
93981858	2867	2147	1655
93982018	2867	2160	1683
93982178	2871	2155	1654
93982338	2856	2162	1662
93982498	2871	2147	1658
93982658	2867	2148	1670
93982818	2855	2151	1651
93982978	2862	2149	1655
93983138	2866	2153	1659
93983298	2855	2144	1678
93983458	2863	2146	1661
93983618	2874	2153	1665
93983778	2864	2154	1660
93983938	2869	2150	1646
93984098	2863	2144	1653
93984258	2862	2153	1661
93984418	2875	2155	1664
93984578	2859	2153	1672
93984738	2862	2158	1651
93984898	2878	2162	1672
93985058	2872	2160	1665
93985218	2857	2153	1661
93985378	2868	2159	1654
93985538	2872	2169	1660
93985698	2867	2139	1665
93985858	2868	2133	1673
93986018	2855	2138	1658
93986178	2871	2143	1659
93986338	2858	2156	1678
93986498	2873	2150	1662
93986658	2854	2145	1674
93986818	2833	2132	1662
93986978	2880	2163	1647
93987138	2863	2148	1664
93987298	2859	2144	1664
93987458	2826	2185	1665
93987618	2867	2138	1667
93987778	2863	2153	1653
93987938	2847	2137	1666
93988098	2844	2143	1675
93988258	2869	2140	1670
93988418	2868	2157	1663
93988578	2865	2146	1661
93988738	2854	2173	1660
93988898	2861	2177	1645
93989058	2863	2146	1657
93989218	2859	2145	1666
93989378	2847	2142	1664
93989538	2852	2147	1659
93989698	2860	2157	1647
93989858	2880	2113	1664
93990018	2866	2152	1653
93990178	2853	2142	1643
93990338	2876	2159	1657
93990498	2877	2147	1672
93990658	2858	2142	1648
93990818	2857	2147	1672
93990978	2866	2146	1661
93991138	2872	2161	1668
93991298	2871	2159	1661
93991458	2882	2149	1663
93991618	2885	2151	1655
93991778	2876	2155	1676
93991938	2874	2158	1655
93992098	2870	2143	1653
93992258	2861	2149	1660
93992418	2873	2146	1677
93992578	2859	2153	1671
93992738	2863	2157	1677
93992898	2869	2150	1662
93993058	2882	2153	1653
93993218	2870	2152	1663
93993378	2870	2147	1661
93993538	2864	2138	1662
93993698	2868	2152	1647
93993858	2872	2145	1667
93994018	2866	2154	1660
93994178	2862	2163	1669
93994338	2865	2154	1659
93994498	2871	2150	1656
93994658	2868	2161	1661
93994818	2853	2155	1656
93994978	2869	2151	1646
93995138	2866	2147	1654
93995298	2858	2146	1662
93995458	2862	2137	1665
93995618	2867	2147	1663
93995778	2875	2144	1670
93995938	2876	2149	1653
93996098	2873	2154	1673
93996258	2867	2140	1655
93996418	2865	2149	1652
93996578	2868	2156	1676
93996738	2863	2134	1661
93996898	2865	2158	1671
93997058	2875	2151	1662
93997218	2871	2148	1649
93997378	2858	2156	1648
93997538	2867	2151	1673
93997698	2858	2148	1649
93997858	2850	2144	1663
93998018	2869	2147	1664
93998178	2850	2157	1663
93998338	2870	2157	1664
93998498	2862	2149	1676
93998658	2862	2155	1661
93998818	2875	2147	1658
93998978	2861	2159	1662
93999138	2873	2147	1652
93999298	2863	2150	1674
93999458	2871	2148	1668
93999618	2872	2149	1654
93999778	2870	2155	1653
93999938	2862	2152	1662
94000098	2866	2148	1661
94000258	2875	2149	1658
94000418	2866	2160	1664
94000578	2869	2143	1663
94000738	2868	2139	1668
94000898	2854	2158	1649
94001058	2875	2155	1661
94001218	2870	2154	1664
94001378	2860	2144	1657
94001538	2855	2158	1669
94001698	2868	2151	1662
94001858	2873	2150	1664
94002018	2882	2150	1678
94002178	2870	2153	1654
94002338	2856	2152	1667
94002498	2858	2143	1660
94002658	2865	2152	1661
94002818	2858	2149	1644
94002978	2881	2150	1677
94003138	2862	2159	1654
94003298	2870	2157	1651
94003458	2861	2156	1656
94003618	2859	2158	1660
94003778	2869	2147	1675
94003938	2854	2156	1665
94004098	2861	2148	1658
94004258	2872	2150	1640
94004418	2867	2151	1673
94004578	2869	2156	1648
94004738	2867	2149	1661
94004898	2874	2147	1669
94005058	2858	2148	1664
94005218	2874	2143	1661
94005378	2862	2150	1676
94005538	2868	2151	1654
94005698	2860	2150	1668
94005858	2878	2144	1662
94006018	2875	2155	1660
94006178	2868	2152	1644
94006338	2863	2146	1668
94006498	2861	2137	1653
94006658	2879	2154	1675
94006818	2866	2144	1662
94006978	2856	2140	1660
94007138	2866	2150	1667
94007298	2831	2142	1640
94007458	2863	2149	1687
94007618	2859	2153	1671
94007778	2857	2151	1659
94007938	2874	2147	1667
94008098	2853	2157	1649
94008258	2858	2151	1665
94008418	2852	2138	1669
94008578	2864	2147	1656
94008738	2871	2163	1670
94008898	2885	2163	1647
94009058	2867	2154	1655
94009218	2867	2140	1661
94009378	2874	2153	1658
94009538	2858	2153	1667
94009698	2876	2152	1661
94009858	2874	2166	1658
94010018	2867	2157	1676
94010178	2862	2148	1659
94010338	2861	2139	1640
94010498	2856	2134	1661
94010658	2869	2160	1672
94010818	2879	2150	1655
94010978	2867	2155	1678
94011138	2863	2166	1648
94011298	2868	2156	1662
94011458	2859	2142	1667
94011618	2873	2157	1667
94011778	2868	2151	1668
94011938	2870	2151	1673
94012098	2865	2147	1661
94012258	2868	2139	1646
94012418	2871	2149	1669
94012578	2854	2155	1650
94012738	2875	2151	1677
94012898	2858	2164	1645
94013058	2866	2148	1653
94013218	2863	2143	1653
94013378	2860	2150	1648
94013538	2867	2164	1651
94013698	2861	2139	1671
94013858	2873	2146	1654
94014018	2873	2145	1654
94014178	2869	2146	1673
94014338	2858	2163	1651
94014498	2869	2158	1655
94014658	2864	2151	1649
94014818	2871	2149	1663
94014978	2867	2155	1671
94015138	2852	2142	1651
94015298	2868	2142	1660
94015458	2872	2154	1656
94015618	2870	2155	1661
94015778	2864	2155	1647
94015938	2862	2143	1658
94016098	2876	2149	1658
94016258	2875	2155	1673
94016418	2858	2162	1663
94016578	2868	2149	1663
94016738	2861	2138	1656
94016898	2871	2147	1672
94017058	2861	2134	1652
94017218	2878	2157	1672
94017378	2861	2154	1656
94017538	2872	2139	1663
94017698	2869	2152	1666
94017858	2856	2154	1649
94018018	2869	2166	1660
94018178	2870	2151	1657
94018338	2856	2145	1662
94018498	2870	2147	1672
94018658	2861	2144	1649
94018818	2879	2150	1656
94018978	2880	2149	1652
94019138	2875	2161	1657
94019298	2867	2135	1657
94019458	2870	2162	1664
94019618	2845	2151	1656
94019778	2861	2153	1670
94019938	2856	2155	1660
94020098	2868	2150	1657
94020258	2867	2154	1665
94020418	2863	2153	1660
94020578	2871	2157	1669
94020738	2867	2148	1656
94020898	2877	2154	1666
94021058	2874	2147	1663
94021218	2868	2154	1664
94021378	2868	2156	1661
94021538	2864	2154	1668
94021698	2853	2159	1666
94021858	2867	2141	1649
94022018	2861	2150	1654
94022178	2867	2151	1647
94022338	2869	2148	1657
94022498	2869	2151	1653
94022658	2870	2146	1663
94022818	2865	2142	1664
94022978	2862	2158	1658
94023138	2858	2137	1664
94023298	2856	2143	1657
94023458	2883	2153	1656
94023618	2879	2152	1661
94023778	2870	2156	1669
94023938	2870	2145	1658
94024098	2869	2155	1660
94024258	2874	2150	1662
94024418	2867	2150	1647
94024578	2871	2147	1649
94024738	2860	2155	1679
94024898	2868	2150	1654
94025058	2862	2153	1658
94025218	2861	2151	1659
94025378	2863	2155	1660
94025538	2868	2155	1671
94025698	2878	2155	1677
94025858	2881	2155	1664
94026018	2870	2162	1667
94026178	2867	2150	1662
94026338	2855	2142	1674
94026498	2867	2158	1654
94026658	2863	2156	1659
94026818	2874	2141	1655
94026978	2880	2154	1659
94027138	2876	2156	1663
94027298	2862	2151	1668
94027458	2859	2148	1658
94027618	2875	2142	1648
94027778	2863	2134	1636
94027938	2878	2160	1635
94028098	2860	2160	1664
94028258	2859	2133	1652
94028418	2828	2119	1652
94028578	2870	2145	1655
94028738	2867	2145	1659
94028898	2862	2165	1673
94029058	2860	2160	1645
94029218	2875	2142	1674
94029378	2859	2151	1707
94029538	2866	2160	1671
94029698	2850	2157	1648
94029858	2866	2144	1654
94030018	2875	2157	1657
94030178	2874	2157	1655
94030338	2865	2148	1674
94030498	2855	2153	1651
94030658	2864	2153	1662
94030818	2859	2146	1649
94030978	2872	2160	1672
94031138	2863	2155	1660
94031298	2869	2144	1672
94031458	2863	2147	1651
94031618	2862	2155	1652
94031778	2853	2151	1672
94031938	2870	2149	1652
94032098	2868	2148	1656
94032258	2864	2158	1663
94032418	2878	2160	1676
94032578	2868	2145	1660
94032738	2860	2154	1658
94032898	2865	2139	1665
94033058	2863	2165	1644
94033218	2876	2159	1659
94033378	2858	2140	1675
94033538	2860	2156	1658
94033698	2871	2153	1669
94033858	2862	2156	1657
94034018	2856	2148	1653
94034178	2870	2162	1662
94034338	2870	2154	1639
94034498	2871	2159	1653
94034658	2875	2153	1671
94034818	2870	2156	1664
94034978	2872	2149	1663
94035138	2868	2160	1661
94035298	2868	2154	1655
94035458	2874	2159	1658
94035618	2870	2143	1654
94035778	2865	2172	1643
94035938	2871	2144	1657
94036098	2875	2161	1654
94036258	2883	2146	1663
94036418	2858	2164	1663
94036578	2866	2138	1658
94036738	2867	2148	1649
94036898	2862	2153	1669
94037058	2864	2147	1653
94037218	2863	2152	1658
94037378	2848	2149	1665
94037538	2865	2148	1668
94037698	2866	2154	1656
94037858	2878	2151	1645
94038018	2861	2159	1666
94038178	2862	2131	1649
94038338	2860	2141	1657
94038498	2873	2151	1657
94038658	2872	2150	1677
94038818	2872	2157	1660
94038978	2862	2140	1661
94039138	2868	2160	1662
94039298	2870	2156	1672
94039458	2857	2153	1658
94039618	2860	2161	1651
94039778	2865	2145	1656
94039938	2874	2157	1660
94040098	2870	2153	1647
94040258	2872	2142	1655
94040418	2884	2156	1662
94040578	2872	2148	1659
94040738	2868	2152	1653
94040898	2874	2150	1653
94041058	2866	2161	1665
94041218	2858	2157	1665
94041378	2854	2161	1677
94041538	2869	2162	1667
94041698	2868	2146	1661
94041858	2875	2159	1658
94042018	2869	2152	1665
94042178	2874	2159	1655
94042338	2857	2158	1649
94042498	2865	2147	1645
94042658	2874	2149	1650
94042818	2887	2154	1673
94042978	2861	2150	1655
94043138	2862	2159	1654
94043298	2883	2172	1652
94043458	2860	2147	1657
94043618	2870	2142	1659
94043778	2870	2151	1650
94043938	2873	2154	1666
94044098	2879	2152	1652
94044258	2869	2151	1661
94044418	2879	2139	1660
94044578	2863	2151	1650
94044738	2850	2145	1664
94044898	2867	2144	1663
94045058	2879	2158	1657
94045218	2863	2161	1655
94045378	2862	2151	1663
94045538	2874	2158	1652
94045698	2858	2148	1653
94045858	2868	2147	1654
94046018	2878	2149	1666
94046178	2861	2154	1659
94046338	2863	2148	1643
94046498	2864	2161	1665
94046658	2870	2148	1664
94046818	2872	2164	1656
94046978	2879	2150	1666
94047138	2868	2149	1662
94047298	2883	2161	1664
94047458	2865	2151	1664
94047618	2869	2135	1670
94047778	2862	2157	1651
94047938	2860	2155	1662
94048098	2877	2130	1655
94048258	2846	2118	1603
94048418	2816	2166	1657
94048578	2859	2136	1661
94048738	2870	2148	1662
94048898	2887	2143	1673
94049058	2851	2148	1665
94049218	2868	2134	1653
94049378	2867	2113	1670
94049538	2865	2146	1668
94049698	2867	2152	1663
94049858	2857	2135	1648
94050018	2861	2155	1653
94050178	2870	2152	1662
94050338	2868	2160	1642
94050498	2870	2150	1662
94050658	2877	2151	1651
94050818	2877	2144	1656
94050978	2883	2154	1656
94051138	2875	2158	1661
94051298	2871	2166	1655
94051458	2854	2143	1677
94051618	2860	2145	1675
94051778	2867	2141	1661
94051938	2882	2144	1658
94052098	2858	2139	1669
94052258	2870	2152	1660
94052418	2877	2153	1656
94052578	2871	2143	1662
94052738	2865	2151	1654
94052898	2875	2156	1665
94053058	2870	2158	1666
94053218	2874	2167	1669
94053378	2872	2145	1649
94053538	2873	2150	1660
94053698	2866	2159	1669
94053858	2859	2150	1662
94054018	2858	2152	1653
94054178	2865	2150	1663
94054338	2869	2151	1670
94054498	2872	2152	1654
94054658	2871	2148	1666
94054818	2876	2147	1662
94054978	2865	2160	1651
94055138	2880	2137	1647
94055298	2865	2148	1670
94055458	2859	2154	1659
94055618	2870	2149	1653
94055778	2862	2167	1666
94055938	2866	2145	1670
94056098	2857	2153	1650
94056258	2864	2151	1660
94056418	2867	2154	1666
94056578	2863	2156	1664
94056738	2862	2153	1652
94056898	2865	2144	1667
94057058	2865	2153	1652
94057218	2863	2152	1662
94057378	2865	2141	1672
94057538	2849	2142	1659
94057698	2867	2155	1658
94057858	2869	2166	1651
94058018	2872	2140	1670
94058178	2860	2161	1663
94058338	2865	2151	1655
94058498	2864	2156	1655
94058658	2864	2153	1658
94058818	2854	2138	1655
94058978	2871	2132	1660
94059138	2863	2154	1650
94059298	2862	2155	1641
94059458	2867	2151	1656
94059618	2868	2153	1666
94059778	2867	2142	1648
94059938	2864	2157	1657
94060098	2866	2159	1655
94060258	2867	2150	1659
94060418	2879	2153	1661
94060578	2864	2144	1643
94060738	2871	2139	1663
94060898	2858	2149	1660
94061058	2867	2154	1668
94061218	2855	2143	1661
94061378	2859	2150	1652
94061538	2867	2142	1656
94061698	2871	2150	1660
94061858	2874	2165	1656
94062018	2858	2166	1667
94062178	2865	2155	1646
94062338	2868	2158	1668
94062498	2864	2142	1661
94062658	2878	2146	1654
94062818	2878	2149	1660
94062978	2871	2151	1668
94063138	2873	2156	1648
94063298	2873	2156	1663
94063458	2872	2156	1653
94063618	2867	2152	1650
94063778	2871	2149	1656
94063938	2854	2154	1667
94064098	2858	2142	1664
94064258	2855	2172	1653
94064418	2871	2148	1655
94064578	2858	2150	1667
94064738	2868	2141	1649
94064898	2878	2161	1660
94065058	2867	2147	1659
94065218	2874	2158	1660
94065378	2867	2139	1650
94065538	2872	2147	1652
94065698	2858	2149	1659
94065858	2871	2157	1656
94066018	2867	2146	1648
94066178	2862	2145	1667
94066338	2868	2159	1673
94066498	2876	2150	1666
94066658	2872	2163	1661
94066818	2878	2159	1663
94066978	2863	2141	1648
94067138	2866	2146	1664
94067298	2864	2159	1656
94067458	2859	2151	1660
94067618	2863	2142	1647
94067778	2867	2145	1657
94067938	2860	2142	1667
94068098	2855	2139	1663
94068258	2876	2160	1672
94068418	2876	2155	1660
94068578	2866	2144	1675
94068738	2824	2123	1643
94068898	2898	2170	1629
94069058	2872	2160	1645
94069218	2861	2161	1658
94069378	2902	2154	1652
94069538	2863	2144	1666
94069698	2864	2135	1659
94069858	2881	2157	1659
94070018	2860	2147	1671
94070178	2859	2150	1660
94070338	2835	2176	1615
94070498	2847	2147	1664
94070658	2877	2153	1654
94070818	2835	2152	1656
94070978	2821	2111	1575
94071138	2884	2230	1720
94071298	2899	2201	1703
94071458	2884	2163	1670
94071618	2816	2114	1637
94071778	2907	2173	1709
94071938	2873	2155	1678
94072098	2833	2172	1637
94072258	2868	2176	1683
94072418	2852	2185	1679
94072578	2877	2168	1681
94072738	2802	2169	1664
94072898	2905	2184	1659
94073058	2881	2131	1610
94073218	2871	2124	1632
94073378	2848	2053	1574
94073538	2876	2188	1666
94073698	2887	2187	1655
94073858	2853	2125	1733
94074018	2859	2159	1663
94074178	2851	2142	1610
94074338	2858	2164	1649
94074498	2802	2120	1653
94074658	2888	2188	1690
94074818	2884	2140	1611
94074978	2848	2142	1659
94075138	2806	2050	1682
94075298	2841	2158	1635
94075458	2882	2155	1677
94075618	2868	2140	1662
94075778	2862	2139	1656
94075938	2870	2141	1668
94076098	2867	2148	1661
94076258	2881	2153	1647
94076418	2860	2140	1672
94076578	2853	2142	1672
94076738	2858	2153	1657
94076898	2870	2144	1655
94077058	2864	2160	1659
94077218	2859	2151	1672
94077378	2859	2147	1654
94077538	2867	2155	1658
94077698	2860	2154	1657
94077858	2870	2155	1677
94078018	2873	2164	1664
94078178	2864	2136	1650
94078338	2887	2146	1667
94078498	2867	2156	1654
94078658	2878	2152	1644
94078818	2862	2155	1669
94078978	2873	2142	1654
94079138	2864	2153	1678
94079298	2857	2150	1663
94079458	2869	2148	1658
94079618	2872	2154	1660
94079778	2863	2154	1668
94079938	2866	2152	1657
94080098	2874	2153	1657
94080258	2867	2143	1669
94080418	2873	2150	1650
94080578	2859	2149	1672
94080738	2862	2152	1655
94080898	2865	2155	1675
94081058	2875	2156	1646
94081218	2865	2144	1671
94081378	2867	2151	1664
94081538	2864	2152	1653
94081698	2871	2161	1657
94081858	2869	2151	1655
94082018	2871	2145	1651
94082178	2852	2150	1651
94082338	2864	2144	1650
94082498	2876	2142	1655
94082658	2864	2151	1659
94082818	2862	2147	1661
94082978	2878	2143	1660
94083138	2871	2154	1668
94083298	2863	2144	1667
94083458	2866	2157	1663
94083618	2868	2136	1665
94083778	2865	2169	1663
94083938	2865	2152	1665
94084098	2862	2160	1660
94084258	2874	2161	1661
94084418	2860	2154	1664
94084578	2869	2143	1672
94084738	2858	2154	1655
94084898	2865	2159	1662
94085058	2862	2151	1659
94085218	2867	2153	1667
94085378	2876	2151	1652
94085538	2864	2158	1659
94085698	2859	2153	1647
94085858	2874	2152	1661
94086018	2856	2145	1651
94086178	2869	2157	1655
94086338	2861	2155	1658
94086498	2871	2174	1664
94086658	2873	2151	1657
94086818	2857	2155	1665
94086978	2867	2146	1659
94087138	2878	2151	1656
94087298	2887	2158	1662
94087458	2857	2148	1659
94087618	2870	2137	1658
94087778	2856	2156	1656
94087938	2857	2145	1656
94088098	2859	2134	1649
94088258	2865	2155	1655
94088418	2863	2147	1657
94088578	2849	2148	1666
94088738	2860	2150	1666
94088898	2866	2152	1664
94089058	2869	2149	1658
94089218	2856	2142	1654
94089378	2906	2176	1665
94089538	2803	2087	1608
94089698	2843	2118	1637
94089858	2891	2148	1689
94090018	2784	2072	1634
94090178	2870	2120	1697
94090338	2922	2227	1723
94090498	2897	2237	1698
94090658	2878	2145	1692
94090818	2749	2133	1527
94090978	2879	2171	1625
94091138	2884	2126	1643
94091298	2853	2138	1637
94091458	2871	2148	1661
94091618	2891	2211	1729
94091778	2859	2106	1673
94091938	2882	2189	1696
94092098	2847	2111	1621
94092258	2869	2151	1678
94092418	2884	2211	1727
94092578	2799	2172	1630
94092738	2899	2198	1666
94092898	2844	2147	1652
94093058	2847	2147	1627
94093218	2835	2147	1617
94093378	2862	2157	1673
94093538	2858	2147	1667
94093698	2857	2140	1660
94093858	2857	2163	1660
94094018	2867	2132	1654
94094178	2889	2131	1646
94094338	2869	2157	1675
94094498	2866	2146	1678
94094658	2858	2159	1646
94094818	2865	2146	1652
94094978	2863	2150	1669
94095138	2871	2149	1658
94095298	2862	2158	1665
94095458	2865	2149	1666
94095618	2874	2152	1660
94095778	2866	2147	1658
94095938	2869	2156	1672
94096098	2858	2142	1647
94096258	2856	2148	1650
94096418	2877	2144	1658
94096578	2877	2146	1642
94096738	2857	2156	1659
94096898	2861	2141	1655
94097058	2854	2147	1668
94097218	2846	2152	1668
94097378	2867	2155	1666
94097538	2860	2144	1662
94097698	2874	2163	1662
94097858	2867	2141	1670
94098018	2859	2158	1665
94098178	2863	2151	1646
94098338	2870	2148	1651
94098498	2865	2163	1650
94098658	2861	2146	1647
94098818	2867	2145	1655
94098978	2866	2148	1668
94099138	2861	2151	1663
94099298	2856	2143	1637
94099458	2870	2151	1654
94099618	2869	2151	1656
94099778	2875	2151	1653
94099938	2860	2161	1677
94100098	2863	2147	1661
94100258	2872	2145	1657
94100418	2861	2154	1651
94100578	2861	2159	1673
94100738	2858	2153	1666
94100898	2871	2165	1665
94101058	2863	2155	1671
94101218	2868	2142	1667
94101378	2854	2163	1657
94101538	2870	2155	1664
94101698	2863	2161	1657
94101858	2868	2145	1668
94102018	2857	2153	1661
94102178	2854	2144	1655
94102338	2863	2155	1667
94102498	2870	2159	1650
94102658	2863	2156	1658
94102818	2866	2144	1655
94102978	2862	2147	1647
94103138	2864	2139	1655
94103298	2865	2145	1670
94103458	2859	2153	1653
94103618	2862	2149	1672
94103778	2865	2134	1667
94103938	2868	2155	1666
94104098	2858	2156	1659
94104258	2872	2144	1679
94104418	2853	2139	1669
94104578	2871	2158	1674
94104738	2860	2152	1647
94104898	2869	2156	1677
94105058	2867	2149	1667
94105218	2858	2147	1666
94105378	2858	2153	1651
94105538	2881	2161	1664
94105698	2864	2147	1664
94105858	2862	2159	1658
94106018	2859	2159	1670
94106178	2871	2155	1662
94106338	2868	2147	1670
94106498	2858	2141	1655
94106658	2873	2140	1656
94106818	2870	2146	1655
94106978	2870	2138	1664
94107138	2860	2146	1660
94107298	2865	2145	1664
94107458	2863	2149	1675
94107618	2863	2148	1658
94107778	2875	2152	1643
94107938	2859	2141	1648
94108098	2868	2160	1659
94108258	2862	2152	1664
94108418	2877	2155	1649
94108578	2864	2141	1657
94108738	2868	2137	1667
94108898	2868	2153	1645
94109058	2877	2154	1644
94109218	2862	2142	1656
94109378	2855	2151	1655
94109538	2863	2149	1646
94109698	2870	2123	1682
94109859	2852	2157	1662
94110018	2861	2160	1662
94110178	2870	2160	1667
94110338	2866	2145	1673
94110498	2822	2127	1657
94110658	2848	2138	1663
94110818	2872	2154	1663
94110978	2862	2153	1646
94111138	2875	2148	1666
94111298	2872	2148	1657
94111458	2870	2154	1656
94111618	2858	2133	1662
94111778	2865	2155	1668
94111938	2868	2155	1655
94112098	2862	2149	1662
94112258	2869	2156	1649
94112418	2879	2146	1657
94112578	2862	2153	1654
94112738	2869	2158	1660
94112898	2871	2144	1674
94113058	2863	2164	1665
94113218	2855	2161	1660
94113378	2870	2141	1681
94113538	2864	2135	1658
94113698	2871	2146	1669
94113858	2849	2159	1651
94114018	2876	2161	1655
94114178	2855	2147	1655
94114338	2869	2148	1669
94114498	2873	2143	1649
94114658	2867	2143	1658
94114818	2864	2158	1656
94114978	2855	2148	1656
94115138	2873	2163	1647
94115298	2858	2152	1668
94115458	2868	2140	1671
94115618	2847	2154	1654
94115778	2866	2160	1671
94115938	2858	2154	1651
94116098	2869	2153	1661
94116258	2860	2153	1670
94116418	2853	2162	1673
94116578	2870	2162	1668
94116738	2860	2144	1673
94116898	2854	2150	1667
94117058	2861	2153	1665
94117218	2865	2154	1654
94117378	2870	2157	1656
94117538	2863	2151	1648
94117698	2865	2147	1669
94117858	2862	2145	1661
94118018	2863	2146	1667
94118178	2860	2150	1656
94118338	2860	2153	1678
94118498	2869	2142	1656
94118658	2862	2159	1656
94118818	2865	2153	1659
94118978	2866	2153	1651
94119138	2862	2151	1676
94119298	2866	2148	1665
94119458	2873	2146	1652
94119618	2861	2166	1665
94119778	2857	2146	1651
94119938	2863	2146	1655
94120098	2875	2141	1657
94120258	2863	2155	1648
94120418	2867	2140	1657
94120578	2859	2163	1669
94120738	2873	2140	1667
94120898	2874	2151	1673
94121058	2869	2154	1650
94121218	2867	2157	1661
94121378	2877	2147	1650
94121538	2872	2142	1661
94121698	2869	2151	1653
94121858	2875	2157	1667
94122018	2866	2167	1666
94122178	2857	2154	1655
94122338	2862	2150	1673
94122498	2858	2135	1665
94122658	2870	2144	1650
94122818	2868	2153	1667
94122978	2869	2165	1665
94123138	2873	2160	1659
94123298	2870	2148	1667
94123458	2863	2145	1653
94123618	2873	2147	1655
94123778	2862	2151	1658
94123938	2876	2146	1676
94124098	2875	2158	1679
94124258	2856	2149	1671
94124418	2864	2156	1657
94124578	2856	2160	1659
94124738	2870	2158	1660
94124898	2864	2137	1660
94125058	2850	2156	1671
94125218	2859	2145	1647
94125378	2860	2138	1669
94125538	2865	2165	1558
94125698	2867	2183	1526
94125858	2858	2164	1709
94126018	2862	2129	1676
94126178	2865	2149	1663
94126338	2863	2156	1689
94126498	2863	2151	1653
94126658	2866	2150	1650
94126818	2866	2150	1603
94126978	2859	2160	1690
94127138	2857	2152	1679
94127298	2860	2152	1659
94127458	2866	2155	1660
94127618	2882	2158	1669
94127778	2872	2154	1659
94127938	2868	2136	1667
94128098	2841	2187	1516
94128258	2871	2150	1661
94128418	2862	2138	1690
94128578	2857	2159	1685
94128738	2865	2149	1645
94128898	2868	2166	1648
94129058	2868	2147	1655
94129218	2853	2144	1607
94129378	2866	2155	1602
94129538	2870	2134	1707
94129698	2851	2154	1698
94129858	2877	2162	1659
94130018	2869	2168	1669
94130178	2990	1944	1623
94130338	2909	2128	1704
94130498	2867	2162	1718
94130658	2865	2151	1655
94130818	2877	2238	1785
94130978	2857	2107	1737
94131138	2855	2119	1659
94131298	2857	2169	1530
94131458	2855	2138	1576
94131618	2872	2145	1628
94131778	2796	2118	1428
94131938	2845	2166	1685
94132098	2861	2155	1666
94132258	2871	2156	1621
94132418	2871	2165	1643
94132578	2871	2156	1681
94132738	2879	2141	1646
94132898	2868	2141	1654
94133058	2850	2152	1653
94133218	2885	2145	1671
94133378	2869	2148	1656
94133538	2866	2152	1652
94133698	2852	2160	1665
94133858	2855	2158	1660
94134018	2862	2145	1657
94134178	2876	2136	1663
94134338	2865	2129	1671
94134498	2874	2162	1664
94134658	2869	2151	1659
94134818	2867	2152	1666
94134978	2856	2154	1658
94135138	2866	2145	1648
94135298	2872	2147	1655
94135458	2870	2145	1654
94135618	2873	2160	1663
94135778	2864	2163	1654
94135938	2877	2161	1662
94136098	2864	2164	1662
94136258	2871	2162	1676
94136418	2868	2154	1654
94136578	2868	2153	1662
94136738	2859	2162	1669
94136898	2877	2155	1651
94137058	2869	2154	1665
94137218	2867	2140	1655
94137378	2857	2151	1668
94137538	2853	2150	1668
94137698	2870	2154	1667
94137858	2864	2138	1668
94138018	2866	2157	1653
94138178	2859	2160	1635
94138338	2846	2155	1659
94138498	2859	2152	1665
94138658	2869	2156	1661
94138818	2864	2145	1651
94138978	2856	2151	1653
94139138	2880	2145	1659
94139298	2870	2149	1654
94139458	2868	2159	1668
94139618	2857	2151	1658
94139778	2870	2161	1667
94139938	2853	2153	1670
94140098	2857	2151	1644
94140258	2863	2143	1646
94140418	2874	2147	1668
94140578	2864	2165	1645
94140738	2870	2170	1645
94140898	2864	2149	1656
94141058	2871	2142	1663
94141218	2867	2151	1644
94141378	2872	2133	1641
94141538	2867	2142	1664
94141698	2858	2157	1656
94141858	2863	2149	1653
94142018	2876	2148	1640
94142178	2865	2150	1638
94142338	2864	2167	1661
94142498	2866	2137	1664
94142658	2859	2170	1668
94142818	2868	2154	1681
94142978	2865	2144	1656
94143138	2864	2141	1650
94143298	2857	2136	1667
94143458	2862	2150	1649
94143618	2879	2148	1657
94143778	2873	2138	1651
94143938	2864	2157	1666
94144098	2871	2151	1664
94144258	2864	2153	1639
