Shimmer 1	Shimmer 1	Shimmer 1	Shimmer 1	Shimmer 1	Shimmer 1	Shimmer 1	Shimmer 1
Timestamp	Accelerometer X	Accelerometer Y	Accelerometer Z	Timestamp	Accelerometer X	Accelerometer Y	Accelerometer Z
RAW	RAW	RAW	RAW	CAL	CAL	CAL	CAL
No unit	No unit	No unit	No unit	mSecs	m/(sec^2)*	m/(sec^2)*	m/(sec^2)*
45665	914	2151	1659	1393,58520507813	-11,2277227722772	1,01980198019802	-3,85148514851485
45825	963	2163	1656	1398,46801757813	-10,7425742574257	1,13861386138614	-3,88118811881188
45985	952	2141	1658	1403,35083007813	-10,8514851485149	0,920792079207921	-3,86138613861386
46145	961	2139	1653	1408,23364257813	-10,7623762376238	0,900990099009901	-3,91089108910891
46305	952	2146	1632	1413,11645507813	-10,8514851485149	0,97029702970297	-4,11881188118812
46465	945	2152	1657	1417,99926757813	-10,9207920792079	1,02970297029703	-3,87128712871287
46625	943	2139	1644	1422,88208007813	-10,9405940594059	0,900990099009901	-4
46785	943	2146	1650	1427,76489257813	-10,9405940594059	0,97029702970297	-3,94059405940594
46945	955	2141	1637	1432,64770507813	-10,8217821782178	0,920792079207921	-4,06930693069307
47105	937	2152	1675	1437,53051757813	-11	1,02970297029703	-3,69306930693069
47265	935	2169	1645	1442,41333007813	-11,019801980198	1,1980198019802	-3,99009900990099
47425	951	2146	1641	1447,29614257813	-10,8613861386139	0,97029702970297	-4,02970297029703
47585	932	2151	1623	1452,17895507813	-11,0495049504951	1,01980198019802	-4,20792079207921
47745	966	2141	1652	1457,06176757813	-10,7128712871287	0,920792079207921	-3,92079207920792
47905	941	2152	1644	1461,94458007813	-10,960396039604	1,02970297029703	-4
48065	965	2163	1664	1466,82739257813	-10,7227722772277	1,13861386138614	-3,8019801980198
48225	925	2122	1664	1471,71020507813	-11,1188118811881	0,732673267326733	-3,8019801980198
48385	947	2170	1676	1476,59301757813	-10,9009900990099	1,20792079207921	-3,68316831683168
48545	947	2156	1656	1481,47583007813	-10,9009900990099	1,06930693069307	-3,88118811881188
48705	955	2168	1665	1486,35864257813	-10,8217821782178	1,18811881188119	-3,79207920792079
48865	933	2151	1657	1491,24145507813	-11,039603960396	1,01980198019802	-3,87128712871287
49025	960	2161	1653	1496,12426757813	-10,7722772277228	1,11881188118812	-3,91089108910891
49185	952	2151	1656	1501,00708007813	-10,8514851485149	1,01980198019802	-3,88118811881188
49345	952	2137	1676	1505,88989257813	-10,8514851485149	0,881188118811881	-3,68316831683168
49505	953	2139	1648	1510,77270507813	-10,8415841584158	0,900990099009901	-3,96039603960396
49665	944	2145	1646	1515,65551757813	-10,9306930693069	0,96039603960396	-3,98019801980198
49825	964	2141	1664	1520,53833007813	-10,7326732673267	0,920792079207921	-3,8019801980198
49985	956	2145	1648	1525,42114257813	-10,8118811881188	0,96039603960396	-3,96039603960396
50145	960	2170	1662	1530,30395507813	-10,7722772277228	1,20792079207921	-3,82178217821782
50305	956	2127	1668	1535,18676757813	-10,8118811881188	0,782178217821782	-3,76237623762376
50465	940	2167	1639	1540,06958007813	-10,970297029703	1,17821782178218	-4,04950495049505
50625	948	2150	1656	1544,95239257813	-10,8910891089109	1,00990099009901	-3,88118811881188
50785	948	2149	1662	1549,83520507813	-10,8910891089109	1	-3,82178217821782
50945	952	2147	1658	1554,71801757813	-10,8514851485149	0,98019801980198	-3,86138613861386
51105	943	2158	1656	1559,60083007813	-10,9405940594059	1,08910891089109	-3,88118811881188
51265	938	2150	1667	1564,48364257813	-10,990099009901	1,00990099009901	-3,77227722772277
51425	942	2148	1660	1569,36645507813	-10,950495049505	0,99009900990099	-3,84158415841584
51585	962	2161	1662	1574,24926757813	-10,7524752475248	1,11881188118812	-3,82178217821782
51745	968	2159	1647	1579,13208007813	-10,6930693069307	1,0990099009901	-3,97029702970297
51905	947	2129	1645	1584,01489257813	-10,9009900990099	0,801980198019802	-3,99009900990099
52065	963	2132	1666	1588,89770507813	-10,7425742574257	0,831683168316832	-3,78217821782178
52225	939	2166	1653	1593,78051757813	-10,980198019802	1,16831683168317	-3,91089108910891
52385	948	2182	1671	1598,66333007813	-10,8910891089109	1,32673267326733	-3,73267326732673
52545	986	2152	1650	1603,54614257813	-10,5148514851485	1,02970297029703	-3,94059405940594
52705	945	2151	1639	1608,42895507813	-10,9207920792079	1,01980198019802	-4,04950495049505
52865	967	2151	1666	1613,31176757813	-10,7029702970297	1,01980198019802	-3,78217821782178
53025	941	2176	1655	1618,19458007813	-10,960396039604	1,26732673267327	-3,89108910891089
53185	956	2145	1662	1623,07739257813	-10,8118811881188	0,96039603960396	-3,82178217821782
53345	939	2135	1656	1627,96020507813	-10,980198019802	0,861386138613861	-3,88118811881188
53505	947	2135	1657	1632,84301757813	-10,9009900990099	0,861386138613861	-3,87128712871287
53665	936	2146	1645	1637,72583007813	-11,009900990099	0,97029702970297	-3,99009900990099
53825	938	2146	1668	1642,60864257813	-10,990099009901	0,97029702970297	-3,76237623762376
53985	981	2127	1644	1647,49145507813	-10,5643564356436	0,782178217821782	-4
54145	957	2156	1640	1652,37426757813	-10,8019801980198	1,06930693069307	-4,03960396039604
54305	956	2136	1635	1657,25708007813	-10,8118811881188	0,871287128712871	-4,08910891089109
54465	947	2151	1672	1662,13989257813	-10,9009900990099	1,01980198019802	-3,72277227722772
54625	940	2154	1677	1667,02270507813	-10,970297029703	1,04950495049505	-3,67326732673267
54785	941	2129	1648	1671,90551757813	-10,960396039604	0,801980198019802	-3,96039603960396
54945	941	2166	1669	1676,78833007813	-10,960396039604	1,16831683168317	-3,75247524752475
55105	928	2154	1671	1681,67114257813	-11,0891089108911	1,04950495049505	-3,73267326732673
55265	940	2137	1634	1686,55395507813	-10,970297029703	0,881188118811881	-4,0990099009901
55425	962	2149	1659	1691,43676757813	-10,7524752475248	1	-3,85148514851485
55585	940	2136	1671	1696,31958007813	-10,970297029703	0,871287128712871	-3,73267326732673
55745	952	2136	1678	1701,20239257813	-10,8514851485149	0,871287128712871	-3,66336633663366
55905	936	2151	1670	1706,08520507813	-11,009900990099	1,01980198019802	-3,74257425742574
56065	951	2168	1654	1710,96801757813	-10,8613861386139	1,18811881188119	-3,9009900990099
56225	963	2131	1670	1715,85083007813	-10,7425742574257	0,821782178217822	-3,74257425742574
56385	933	2153	1638	1720,73364257813	-11,039603960396	1,03960396039604	-4,05940594059406
56545	958	2139	1642	1725,61645507813	-10,7920792079208	0,900990099009901	-4,01980198019802
56705	957	2173	1654	1730,49926757813	-10,8019801980198	1,23762376237624	-3,9009900990099
56865	966	2158	1662	1735,38208007813	-10,7128712871287	1,08910891089109	-3,82178217821782
57025	945	2131	1671	1740,26489257813	-10,9207920792079	0,821782178217822	-3,73267326732673
57185	943	2148	1652	1745,14770507813	-10,9405940594059	0,99009900990099	-3,92079207920792
57345	926	2135	1651	1750,03051757813	-11,1089108910891	0,861386138613861	-3,93069306930693
57505	936	2159	1661	1754,91333007813	-11,009900990099	1,0990099009901	-3,83168316831683
57665	993	2149	1670	1759,79614257813	-10,4455445544554	1	-3,74257425742574
57825	957	2155	1644	1764,67895507813	-10,8019801980198	1,05940594059406	-4
57985	960	2143	1654	1769,56176757813	-10,7722772277228	0,940594059405941	-3,9009900990099
58145	960	2154	1666	1774,44458007813	-10,7722772277228	1,04950495049505	-3,78217821782178
58305	961	2143	1647	1779,32739257813	-10,7623762376238	0,940594059405941	-3,97029702970297
58465	948	2138	1655	1784,21020507813	-10,8910891089109	0,891089108910891	-3,89108910891089
58625	960	2157	1670	1789,09301757813	-10,7722772277228	1,07920792079208	-3,74257425742574
58785	917	2143	1654	1793,97583007813	-11,1980198019802	0,940594059405941	-3,9009900990099
58945	949	2133	1653	1798,85864257813	-10,8811881188119	0,841584158415842	-3,91089108910891
59105	973	2150	1676	1803,74145507813	-10,6435643564356	1,00990099009901	-3,68316831683168
59265	946	2152	1658	1808,62426757813	-10,9108910891089	1,02970297029703	-3,86138613861386
59425	952	2131	1665	1813,50708007813	-10,8514851485149	0,821782178217822	-3,79207920792079
59585	950	2158	1672	1818,38989257813	-10,8712871287129	1,08910891089109	-3,72277227722772
59745	945	2143	1634	1823,27270507813	-10,9207920792079	0,940594059405941	-4,0990099009901
59905	947	2129	1673	1828,15551757813	-10,9009900990099	0,801980198019802	-3,71287128712871
60065	952	2152	1654	1833,03833007813	-10,8514851485149	1,02970297029703	-3,9009900990099
60225	965	2143	1653	1837,92114257813	-10,7227722772277	0,940594059405941	-3,91089108910891
60385	961	2165	1644	1842,80395507813	-10,7623762376238	1,15841584158416	-4
60545	948	2147	1651	1847,68676757813	-10,8910891089109	0,98019801980198	-3,93069306930693
60705	948	2148	1653	1852,56958007813	-10,8910891089109	0,99009900990099	-3,91089108910891
60865	946	2147	1638	1857,45239257813	-10,9108910891089	0,98019801980198	-4,05940594059406
61025	946	2160	1677	1862,33520507813	-10,9108910891089	1,10891089108911	-3,67326732673267
61185	949	2132	1632	1867,21801757813	-10,8811881188119	0,831683168316832	-4,11881188118812
61345	934	2154	1662	1872,10083007813	-11,029702970297	1,04950495049505	-3,82178217821782
61505	955	2147	1657	1876,98364257813	-10,8217821782178	0,98019801980198	-3,87128712871287
61665	954	2147	1644	1881,86645507813	-10,8316831683168	0,98019801980198	-4
61825	944	2162	1636	1886,74926757813	-10,9306930693069	1,12871287128713	-4,07920792079208
61985	937	2158	1671	1891,63208007813	-11	1,08910891089109	-3,73267326732673
62145	951	2172	1642	1896,51489257813	-10,8613861386139	1,22772277227723	-4,01980198019802
62305	961	2135	1631	1901,39770507813	-10,7623762376238	0,861386138613861	-4,12871287128713
62465	933	2152	1650	1906,28051757813	-11,039603960396	1,02970297029703	-3,94059405940594
62625	937	2148	1643	1911,16333007813	-11	0,99009900990099	-4,00990099009901
62785	948	2149	1684	1916,04614257813	-10,8910891089109	1	-3,6039603960396
62945	964	2165	1647	1920,92895507813	-10,7326732673267	1,15841584158416	-3,97029702970297
63105	945	2147	1661	1925,81176757813	-10,9207920792079	0,98019801980198	-3,83168316831683
63265	949	2148	1660	1930,69458007813	-10,8811881188119	0,99009900990099	-3,84158415841584
63425	948	2169	1672	1935,57739257813	-10,8910891089109	1,1980198019802	-3,72277227722772
63585	941	2153	1658	1940,46020507813	-10,960396039604	1,03960396039604	-3,86138613861386
63745	968	2139	1673	1945,34301757813	-10,6930693069307	0,900990099009901	-3,71287128712871
63905	947	2136	1612	1950,22583007813	-10,9009900990099	0,871287128712871	-4,31683168316832
64065	944	2152	1659	1955,10864257813	-10,9306930693069	1,02970297029703	-3,85148514851485
64225	943	2141	1676	1959,99145507813	-10,9405940594059	0,920792079207921	-3,68316831683168
64385	963	2136	1653	1964,87426757813	-10,7425742574257	0,871287128712871	-3,91089108910891
64545	940	2147	1654	1969,75708007813	-10,970297029703	0,98019801980198	-3,9009900990099
64705	963	2170	1669	1974,63989257813	-10,7425742574257	1,20792079207921	-3,75247524752475
64865	938	2156	1666	1979,52270507813	-10,990099009901	1,06930693069307	-3,78217821782178
65025	948	2170	1643	1984,40551757813	-10,8910891089109	1,20792079207921	-4,00990099009901
65185	949	2142	1644	1989,28833007813	-10,8811881188119	0,930693069306931	-4
65345	956	2162	1626	1994,17114257813	-10,8118811881188	1,12871287128713	-4,17821782178218
65505	950	2159	1657	1999,05395507813	-10,8712871287129	1,0990099009901	-3,87128712871287
129	945	2135	1679	2003,93676757813	-10,9207920792079	0,861386138613861	-3,65346534653465
289	958	2128	1673	2008,81958007813	-10,7920792079208	0,792079207920792	-3,71287128712871
449	958	2150	1639	2013,70239257813	-10,7920792079208	1,00990099009901	-4,04950495049505
609	945	2166	1654	2018,58520507813	-10,9207920792079	1,16831683168317	-3,9009900990099
769	920	2147	1667	2023,46801757813	-11,1683168316832	0,98019801980198	-3,77227722772277
929	945	2150	1659	2028,35083007813	-10,9207920792079	1,00990099009901	-3,85148514851485
1089	946	2147	1667	2033,23364257813	-10,9108910891089	0,98019801980198	-3,77227722772277
1249	960	2148	1650	2038,11645507813	-10,7722772277228	0,99009900990099	-3,94059405940594
1409	950	2137	1645	2042,99926757813	-10,8712871287129	0,881188118811881	-3,99009900990099
1569	940	2156	1654	2047,88208007813	-10,970297029703	1,06930693069307	-3,9009900990099
1729	944	2149	1659	2052,76489257813	-10,9306930693069	1	-3,85148514851485
1889	961	2158	1657	2057,64770507813	-10,7623762376238	1,08910891089109	-3,87128712871287
2049	958	2183	1661	2062,53051757813	-10,7920792079208	1,33663366336634	-3,83168316831683
2209	950	2166	1651	2067,41333007813	-10,8712871287129	1,16831683168317	-3,93069306930693
2369	946	2147	1670	2072,29614257813	-10,9108910891089	0,98019801980198	-3,74257425742574
2529	970	2143	1659	2077,17895507813	-10,6732673267327	0,940594059405941	-3,85148514851485
2689	952	2157	1663	2082,06176757813	-10,8514851485149	1,07920792079208	-3,81188118811881
2849	963	2147	1655	2086,94458007813	-10,7425742574257	0,98019801980198	-3,89108910891089
3009	948	2157	1653	2091,82739257813	-10,8910891089109	1,07920792079208	-3,91089108910891
3169	953	2146	1679	2096,71020507813	-10,8415841584158	0,97029702970297	-3,65346534653465
3329	958	2145	1656	2101,59301757813	-10,7920792079208	0,96039603960396	-3,88118811881188
3489	932	2157	1643	2106,47583007813	-11,0495049504951	1,07920792079208	-4,00990099009901
3649	931	2164	1680	2111,35864257813	-11,0594059405941	1,14851485148515	-3,64356435643564
3809	945	2159	1652	2116,24145507813	-10,9207920792079	1,0990099009901	-3,92079207920792
3969	974	2132	1648	2121,12426757813	-10,6336633663366	0,831683168316832	-3,96039603960396
4129	951	2156	1657	2126,00708007813	-10,8613861386139	1,06930693069307	-3,87128712871287
4289	933	2151	1666	2130,88989257813	-11,039603960396	1,01980198019802	-3,78217821782178
4449	960	2134	1649	2135,77270507813	-10,7722772277228	0,851485148514851	-3,95049504950495
4609	964	2132	1639	2140,65551757813	-10,7326732673267	0,831683168316832	-4,04950495049505
4769	940	2159	1663	2145,53833007813	-10,970297029703	1,0990099009901	-3,81188118811881
4929	924	2164	1646	2150,42114257813	-11,1287128712871	1,14851485148515	-3,98019801980198
5089	950	2147	1665	2155,30395507813	-10,8712871287129	0,98019801980198	-3,79207920792079
5249	946	2162	1649	2160,18676757813	-10,9108910891089	1,12871287128713	-3,95049504950495
5409	964	2127	1644	2165,06958007813	-10,7326732673267	0,782178217821782	-4
5569	971	2147	1674	2169,95239257813	-10,6633663366337	0,98019801980198	-3,7029702970297
5729	966	2122	1647	2174,83520507813	-10,7128712871287	0,732673267326733	-3,97029702970297
5889	933	2153	1667	2179,71801757813	-11,039603960396	1,03960396039604	-3,77227722772277
6049	926	2149	1649	2184,60083007813	-11,1089108910891	1	-3,95049504950495
6209	942	2144	1668	2189,48364257813	-10,950495049505	0,95049504950495	-3,76237623762376
6369	940	2146	1658	2194,36645507813	-10,970297029703	0,97029702970297	-3,86138613861386
6529	955	2144	1637	2199,24926757813	-10,8217821782178	0,95049504950495	-4,06930693069307
6689	955	2150	1637	2204,13208007813	-10,8217821782178	1,00990099009901	-4,06930693069307
6849	922	2132	1639	2209,01489257813	-11,1485148514852	0,831683168316832	-4,04950495049505
7009	973	2154	1676	2213,89770507813	-10,6435643564356	1,04950495049505	-3,68316831683168
7169	950	2162	1662	2218,78051757813	-10,8712871287129	1,12871287128713	-3,82178217821782
7329	932	2146	1657	2223,66333007813	-11,0495049504951	0,97029702970297	-3,87128712871287
7489	938	2154	1659	2228,54614257813	-10,990099009901	1,04950495049505	-3,85148514851485
7649	961	2146	1646	2233,42895507813	-10,7623762376238	0,97029702970297	-3,98019801980198
7809	953	2155	1668	2238,31176757813	-10,8415841584158	1,05940594059406	-3,76237623762376
7969	961	2136	1665	2243,19458007813	-10,7623762376238	0,871287128712871	-3,79207920792079
8129	923	2171	1635	2248,07739257813	-11,1386138613861	1,21782178217822	-4,08910891089109
8289	945	2165	1684	2252,96020507813	-10,9207920792079	1,15841584158416	-3,6039603960396
8449	950	2149	1660	2257,84301757813	-10,8712871287129	1	-3,84158415841584
8609	928	2169	1602	2262,72583007813	-11,0891089108911	1,1980198019802	-4,41584158415842
8769	932	2151	1649	2267,60864257813	-11,0495049504951	1,01980198019802	-3,95049504950495
8929	948	2137	1645	2272,49145507813	-10,8910891089109	0,881188118811881	-3,99009900990099
9089	961	2145	1645	2277,37426757813	-10,7623762376238	0,96039603960396	-3,99009900990099
9249	934	2144	1662	2282,25708007813	-11,029702970297	0,95049504950495	-3,82178217821782
9409	964	2151	1645	2287,13989257813	-10,7326732673267	1,01980198019802	-3,99009900990099
9569	929	2141	1677	2292,02270507813	-11,0792079207921	0,920792079207921	-3,67326732673267
9729	969	2136	1640	2296,90551757813	-10,6831683168317	0,871287128712871	-4,03960396039604
9889	946	2155	1670	2301,78833007813	-10,9108910891089	1,05940594059406	-3,74257425742574
10049	939	2140	1643	2306,67114257813	-10,980198019802	0,910891089108911	-4,00990099009901
10209	963	2142	1635	2311,55395507813	-10,7425742574257	0,930693069306931	-4,08910891089109
10369	931	2144	1653	2316,43676757813	-11,0594059405941	0,95049504950495	-3,91089108910891
10529	956	2140	1667	2321,31958007813	-10,8118811881188	0,910891089108911	-3,77227722772277
10689	949	2146	1671	2326,20239257813	-10,8811881188119	0,97029702970297	-3,73267326732673
10849	954	2164	1655	2331,08520507813	-10,8316831683168	1,14851485148515	-3,89108910891089
11009	975	2159	1667	2335,96801757813	-10,6237623762376	1,0990099009901	-3,77227722772277
11169	917	2149	1638	2340,85083007813	-11,1980198019802	1	-4,05940594059406
11329	957	2159	1657	2345,73364257813	-10,8019801980198	1,0990099009901	-3,87128712871287
11489	947	2157	1634	2350,61645507813	-10,9009900990099	1,07920792079208	-4,0990099009901
11649	951	2155	1643	2355,49926757813	-10,8613861386139	1,05940594059406	-4,00990099009901
11809	940	2132	1684	2360,38208007813	-10,970297029703	0,831683168316832	-3,6039603960396
11969	955	2123	1645	2365,26489257813	-10,8217821782178	0,742574257425743	-3,99009900990099
12129	947	2158	1668	2370,14770507813	-10,9009900990099	1,08910891089109	-3,76237623762376
12289	963	2147	1661	2375,03051757813	-10,7425742574257	0,98019801980198	-3,83168316831683
12449	974	2145	1679	2379,91333007813	-10,6336633663366	0,96039603960396	-3,65346534653465
12609	959	2149	1643	2384,79614257813	-10,7821782178218	1	-4,00990099009901
12769	959	2138	1653	2389,67895507813	-10,7821782178218	0,891089108910891	-3,91089108910891
12929	942	2147	1656	2394,56176757813	-10,950495049505	0,98019801980198	-3,88118811881188
13089	957	2148	1650	2399,44458007813	-10,8019801980198	0,99009900990099	-3,94059405940594
13249	950	2152	1647	2404,32739257813	-10,8712871287129	1,02970297029703	-3,97029702970297
13409	960	2162	1659	2409,21020507813	-10,7722772277228	1,12871287128713	-3,85148514851485
13569	930	2143	1670	2414,09301757813	-11,0693069306931	0,940594059405941	-3,74257425742574
13729	952	2160	1652	2418,97583007813	-10,8514851485149	1,10891089108911	-3,92079207920792
13889	964	2140	1654	2423,85864257813	-10,7326732673267	0,910891089108911	-3,9009900990099
14049	949	2150	1669	2428,74145507813	-10,8811881188119	1,00990099009901	-3,75247524752475
14209	952	2146	1653	2433,62426757813	-10,8514851485149	0,97029702970297	-3,91089108910891
14369	943	2160	1655	2438,50708007813	-10,9405940594059	1,10891089108911	-3,89108910891089
14529	951	2147	1691	2443,38989257813	-10,8613861386139	0,98019801980198	-3,53465346534653
14689	937	2159	1659	2448,27270507813	-11	1,0990099009901	-3,85148514851485
14849	972	2170	1654	2453,15551757813	-10,6534653465347	1,20792079207921	-3,9009900990099
15009	960	2153	1661	2458,03833007813	-10,7722772277228	1,03960396039604	-3,83168316831683
15169	960	2171	1666	2462,92114257813	-10,7722772277228	1,21782178217822	-3,78217821782178
15329	948	2159	1648	2467,80395507813	-10,8910891089109	1,0990099009901	-3,96039603960396
15489	937	2139	1672	2472,68676757813	-11	0,900990099009901	-3,72277227722772
15649	956	2138	1652	2477,56958007813	-10,8118811881188	0,891089108910891	-3,92079207920792
15809	929	2162	1659	2482,45239257813	-11,0792079207921	1,12871287128713	-3,85148514851485
15969	949	2164	1658	2487,33520507813	-10,8811881188119	1,14851485148515	-3,86138613861386
16129	983	2163	1660	2492,21801757813	-10,5445544554455	1,13861386138614	-3,84158415841584
16289	951	2168	1641	2497,10083007813	-10,8613861386139	1,18811881188119	-4,02970297029703
16449	967	2171	1653	2501,98364257813	-10,7029702970297	1,21782178217822	-3,91089108910891
16609	958	2165	1665	2506,86645507813	-10,7920792079208	1,15841584158416	-3,79207920792079
16769	938	2158	1670	2511,74926757813	-10,990099009901	1,08910891089109	-3,74257425742574
16929	928	2130	1676	2516,63208007813	-11,0891089108911	0,811881188118812	-3,68316831683168
17089	947	2139	1665	2521,51489257813	-10,9009900990099	0,900990099009901	-3,79207920792079
17249	939	2143	1642	2526,39770507813	-10,980198019802	0,940594059405941	-4,01980198019802
17409	929	2165	1675	2531,28051757813	-11,0792079207921	1,15841584158416	-3,69306930693069
17569	989	2119	1649	2536,16333007813	-10,4851485148515	0,702970297029703	-3,95049504950495
17729	959	2160	1636	2541,04614257813	-10,7821782178218	1,10891089108911	-4,07920792079208
17889	941	2153	1663	2545,92895507813	-10,960396039604	1,03960396039604	-3,81188118811881
18049	951	2138	1675	2550,81176757813	-10,8613861386139	0,891089108910891	-3,69306930693069
18209	949	2171	1653	2555,69458007813	-10,8811881188119	1,21782178217822	-3,91089108910891
18369	939	2138	1671	2560,57739257813	-10,980198019802	0,891089108910891	-3,73267326732673
18529	957	2137	1649	2565,46020507813	-10,8019801980198	0,881188118811881	-3,95049504950495
18689	973	2161	1662	2570,34301757813	-10,6435643564356	1,11881188118812	-3,82178217821782
18849	929	2151	1659	2575,22583007813	-11,0792079207921	1,01980198019802	-3,85148514851485
19009	968	2131	1643	2580,10864257813	-10,6930693069307	0,821782178217822	-4,00990099009901
19169	963	2150	1630	2584,99145507813	-10,7425742574257	1,00990099009901	-4,13861386138614
19329	951	2154	1664	2589,87426757813	-10,8613861386139	1,04950495049505	-3,8019801980198
19489	940	2150	1677	2594,75708007813	-10,970297029703	1,00990099009901	-3,67326732673267
19649	950	2163	1656	2599,63989257813	-10,8712871287129	1,13861386138614	-3,88118811881188
19809	956	2166	1661	2604,52270507813	-10,8118811881188	1,16831683168317	-3,83168316831683
19969	927	2148	1659	2609,40551757813	-11,0990099009901	0,99009900990099	-3,85148514851485
20129	923	2163	1672	2614,28833007813	-11,1386138613861	1,13861386138614	-3,72277227722772
20289	958	2145	1663	2619,17114257813	-10,7920792079208	0,96039603960396	-3,81188118811881
20449	960	2144	1642	2624,05395507813	-10,7722772277228	0,95049504950495	-4,01980198019802
20609	932	2131	1650	2628,93676757813	-11,0495049504951	0,821782178217822	-3,94059405940594
20769	936	2118	1660	2633,81958007813	-11,009900990099	0,693069306930693	-3,84158415841584
20929	957	2133	1666	2638,70239257813	-10,8019801980198	0,841584158415842	-3,78217821782178
21089	939	2159	1654	2643,58520507813	-10,980198019802	1,0990099009901	-3,9009900990099
21249	935	2157	1669	2648,46801757813	-11,019801980198	1,07920792079208	-3,75247524752475
21409	942	2154	1661	2653,35083007813	-10,950495049505	1,04950495049505	-3,83168316831683
21569	938	2142	1679	2658,23364257813	-10,990099009901	0,930693069306931	-3,65346534653465
21729	961	2135	1650	2663,11645507813	-10,7623762376238	0,861386138613861	-3,94059405940594
21889	963	2154	1639	2667,99926757813	-10,7425742574257	1,04950495049505	-4,04950495049505
22049	954	2166	1668	2672,88208007813	-10,8316831683168	1,16831683168317	-3,76237623762376
22209	936	2125	1657	2677,76489257813	-11,009900990099	0,762376237623762	-3,87128712871287
22369	959	2143	1651	2682,64770507813	-10,7821782178218	0,940594059405941	-3,93069306930693
22529	936	2176	1641	2687,53051757813	-11,009900990099	1,26732673267327	-4,02970297029703
22689	916	2158	1655	2692,41333007813	-11,2079207920792	1,08910891089109	-3,89108910891089
22849	933	2153	1653	2697,29614257813	-11,039603960396	1,03960396039604	-3,91089108910891
23009	967	2151	1656	2702,17895507813	-10,7029702970297	1,01980198019802	-3,88118811881188
23169	938	2153	1657	2707,06176757813	-10,990099009901	1,03960396039604	-3,87128712871287
23329	955	2142	1625	2711,94458007813	-10,8217821782178	0,930693069306931	-4,18811881188119
23489	948	2151	1660	2716,82739257813	-10,8910891089109	1,01980198019802	-3,84158415841584
23649	960	2130	1654	2721,71020507813	-10,7722772277228	0,811881188118812	-3,9009900990099
23809	956	2143	1652	2726,59301757813	-10,8118811881188	0,940594059405941	-3,92079207920792
23969	923	2166	1655	2731,47583007813	-11,1386138613861	1,16831683168317	-3,89108910891089
24129	944	2149	1675	2736,35864257813	-10,9306930693069	1	-3,69306930693069
24289	950	2125	1644	2741,24145507813	-10,8712871287129	0,762376237623762	-4
24449	959	2167	1663	2746,12426757813	-10,7821782178218	1,17821782178218	-3,81188118811881
24609	949	2140	1673	2751,00708007813	-10,8811881188119	0,910891089108911	-3,71287128712871
24769	958	2137	1664	2755,88989257813	-10,7920792079208	0,881188118811881	-3,8019801980198
24929	944	2148	1657	2760,77270507813	-10,9306930693069	0,99009900990099	-3,87128712871287
25089	960	2154	1662	2765,65551757813	-10,7722772277228	1,04950495049505	-3,82178217821782
25249	950	2158	1661	2770,53833007813	-10,8712871287129	1,08910891089109	-3,83168316831683
25409	928	2154	1647	2775,42114257813	-11,0891089108911	1,04950495049505	-3,97029702970297
25569	942	2150	1642	2780,30395507813	-10,950495049505	1,00990099009901	-4,01980198019802
25729	946	2126	1643	2785,18676757813	-10,9108910891089	0,772277227722772	-4,00990099009901
25889	960	2139	1656	2790,06958007813	-10,7722772277228	0,900990099009901	-3,88118811881188
26049	944	2166	1669	2794,95239257813	-10,9306930693069	1,16831683168317	-3,75247524752475
26209	962	2112	1661	2799,83520507813	-10,7524752475248	0,633663366336634	-3,83168316831683
26369	941	2152	1667	2804,71801757813	-10,960396039604	1,02970297029703	-3,77227722772277
26529	941	2160	1652	2809,60083007813	-10,960396039604	1,10891089108911	-3,92079207920792
26689	950	2137	1657	2814,48364257813	-10,8712871287129	0,881188118811881	-3,87128712871287
26849	931	2149	1660	2819,36645507813	-11,0594059405941	1	-3,84158415841584
27009	947	2137	1652	2824,24926757813	-10,9009900990099	0,881188118811881	-3,92079207920792
27169	956	2161	1672	2829,13208007813	-10,8118811881188	1,11881188118812	-3,72277227722772
27329	956	2152	1647	2834,01489257813	-10,8118811881188	1,02970297029703	-3,97029702970297
27489	941	2141	1664	2838,89770507813	-10,960396039604	0,920792079207921	-3,8019801980198
27649	957	2146	1656	2843,78051757813	-10,8019801980198	0,97029702970297	-3,88118811881188
27809	965	2141	1658	2848,66333007813	-10,7227722772277	0,920792079207921	-3,86138613861386
27969	970	2154	1675	2853,54614257813	-10,6732673267327	1,04950495049505	-3,69306930693069
28129	935	2150	1657	2858,42895507813	-11,019801980198	1,00990099009901	-3,87128712871287
28289	921	2158	1628	2863,31176757813	-11,1584158415842	1,08910891089109	-4,15841584158416
28449	938	2163	1661	2868,19458007813	-10,990099009901	1,13861386138614	-3,83168316831683
28609	965	2150	1643	2873,07739257813	-10,7227722772277	1,00990099009901	-4,00990099009901
28769	958	2147	1654	2877,96020507813	-10,7920792079208	0,98019801980198	-3,9009900990099
28929	938	2131	1665	2882,84301757813	-10,990099009901	0,821782178217822	-3,79207920792079
29089	956	2140	1663	2887,72583007813	-10,8118811881188	0,910891089108911	-3,81188118811881
29249	960	2146	1640	2892,60864257813	-10,7722772277228	0,97029702970297	-4,03960396039604
29409	954	2167	1662	2897,49145507813	-10,8316831683168	1,17821782178218	-3,82178217821782
29569	950	2140	1652	2902,37426757813	-10,8712871287129	0,910891089108911	-3,92079207920792
29729	932	2151	1638	2907,25708007813	-11,0495049504951	1,01980198019802	-4,05940594059406
29889	962	2146	1656	2912,13989257813	-10,7524752475248	0,97029702970297	-3,88118811881188
30049	945	2151	1660	2917,02270507813	-10,9207920792079	1,01980198019802	-3,84158415841584
30209	941	2156	1668	2921,90551757813	-10,960396039604	1,06930693069307	-3,76237623762376
30369	934	2130	1679	2926,78833007813	-11,029702970297	0,811881188118812	-3,65346534653465
30529	949	2151	1652	2931,67114257813	-10,8811881188119	1,01980198019802	-3,92079207920792
30689	961	2152	1673	2936,55395507813	-10,7623762376238	1,02970297029703	-3,71287128712871
30849	943	2156	1662	2941,43676757813	-10,9405940594059	1,06930693069307	-3,82178217821782
31009	972	2137	1643	2946,31958007813	-10,6534653465347	0,881188118811881	-4,00990099009901
31169	946	2153	1657	2951,20239257813	-10,9108910891089	1,03960396039604	-3,87128712871287
31329	953	2150	1652	2956,08520507813	-10,8415841584158	1,00990099009901	-3,92079207920792
31489	946	2145	1676	2960,96801757813	-10,9108910891089	0,96039603960396	-3,68316831683168
31649	974	2161	1655	2965,85083007813	-10,6336633663366	1,11881188118812	-3,89108910891089
31809	940	2144	1667	2970,73364257813	-10,970297029703	0,95049504950495	-3,77227722772277
31969	928	2167	1652	2975,61645507813	-11,0891089108911	1,17821782178218	-3,92079207920792
32129	930	2157	1663	2980,49926757813	-11,0693069306931	1,07920792079208	-3,81188118811881
32289	939	2155	1653	2985,38208007813	-10,980198019802	1,05940594059406	-3,91089108910891
32449	955	2154	1640	2990,26489257813	-10,8217821782178	1,04950495049505	-4,03960396039604
32609	931	2151	1661	2995,14770507813	-11,0594059405941	1,01980198019802	-3,83168316831683
32769	974	2133	1661	3000,03051757813	-10,6336633663366	0,841584158415842	-3,83168316831683
32929	956	2136	1677	3004,91333007813	-10,8118811881188	0,871287128712871	-3,67326732673267
33089	943	2152	1665	3009,79614257813	-10,9405940594059	1,02970297029703	-3,79207920792079
33249	924	2137	1662	3014,67895507813	-11,1287128712871	0,881188118811881	-3,82178217821782
33409	930	2154	1657	3019,56176757813	-11,0693069306931	1,04950495049505	-3,87128712871287
33569	947	2162	1642	3024,44458007813	-10,9009900990099	1,12871287128713	-4,01980198019802
33729	936	2135	1679	3029,32739257813	-11,009900990099	0,861386138613861	-3,65346534653465
33889	956	2114	1647	3034,21020507813	-10,8118811881188	0,653465346534653	-3,97029702970297
34049	922	2161	1656	3039,09301757813	-11,1485148514852	1,11881188118812	-3,88118811881188
34209	951	2180	1680	3043,97583007813	-10,8613861386139	1,30693069306931	-3,64356435643564
34369	936	2143	1671	3048,85864257813	-11,009900990099	0,940594059405941	-3,73267326732673
34529	960	2197	1660	3053,74145507813	-10,7722772277228	1,47524752475248	-3,84158415841584
34689	930	2134	1646	3058,62426757813	-11,0693069306931	0,851485148514851	-3,98019801980198
34849	948	2154	1653	3063,50708007813	-10,8910891089109	1,04950495049505	-3,91089108910891
35009	950	2145	1653	3068,38989257813	-10,8712871287129	0,96039603960396	-3,91089108910891
35169	957	2135	1683	3073,27270507813	-10,8019801980198	0,861386138613861	-3,61386138613861
35329	957	2150	1651	3078,15551757813	-10,8019801980198	1,00990099009901	-3,93069306930693
35489	941	2139	1668	3083,03833007813	-10,960396039604	0,900990099009901	-3,76237623762376
35649	964	2126	1662	3087,92114257813	-10,7326732673267	0,772277227722772	-3,82178217821782
35809	946	2155	1644	3092,80395507813	-10,9108910891089	1,05940594059406	-4
35969	956	2182	1662	3097,68676757813	-10,8118811881188	1,32673267326733	-3,82178217821782
36129	951	2157	1662	3102,56958007813	-10,8613861386139	1,07920792079208	-3,82178217821782
36289	937	2154	1653	3107,45239257813	-11	1,04950495049505	-3,91089108910891
36449	955	2143	1663	3112,33520507813	-10,8217821782178	0,940594059405941	-3,81188118811881
36609	948	2150	1661	3117,21801757813	-10,8910891089109	1,00990099009901	-3,83168316831683
36769	960	2126	1671	3122,10083007813	-10,7722772277228	0,772277227722772	-3,73267326732673
36929	957	2159	1665	3126,98364257813	-10,8019801980198	1,0990099009901	-3,79207920792079
37089	947	2159	1662	3131,86645507813	-10,9009900990099	1,0990099009901	-3,82178217821782
37249	936	2145	1667	3136,74926757813	-11,009900990099	0,96039603960396	-3,77227722772277
37409	950	2159	1670	3141,63208007813	-10,8712871287129	1,0990099009901	-3,74257425742574
37569	969	2150	1657	3146,51489257813	-10,6831683168317	1,00990099009901	-3,87128712871287
37729	941	2158	1649	3151,39770507813	-10,960396039604	1,08910891089109	-3,95049504950495
37889	951	2148	1642	3156,28051757813	-10,8613861386139	0,99009900990099	-4,01980198019802
38049	951	2155	1664	3161,16333007813	-10,8613861386139	1,05940594059406	-3,8019801980198
38209	952	2171	1664	3166,04614257813	-10,8514851485149	1,21782178217822	-3,8019801980198
38369	941	2131	1653	3170,92895507813	-10,960396039604	0,821782178217822	-3,91089108910891
38529	928	2161	1652	3175,81176757813	-11,0891089108911	1,11881188118812	-3,92079207920792
38689	938	2148	1648	3180,69458007813	-10,990099009901	0,99009900990099	-3,96039603960396
38849	950	2156	1652	3185,57739257813	-10,8712871287129	1,06930693069307	-3,92079207920792
39009	940	2153	1663	3190,46020507813	-10,970297029703	1,03960396039604	-3,81188118811881
39169	952	2131	1660	3195,34301757813	-10,8514851485149	0,821782178217822	-3,84158415841584
39329	946	2155	1641	3200,22583007813	-10,9108910891089	1,05940594059406	-4,02970297029703
39489	934	2141	1653	3205,10864257813	-11,029702970297	0,920792079207921	-3,91089108910891
39649	944	2130	1657	3209,99145507813	-10,9306930693069	0,811881188118812	-3,87128712871287
39809	970	2153	1669	3214,87426757813	-10,6732673267327	1,03960396039604	-3,75247524752475
39969	943	2153	1680	3219,75708007813	-10,9405940594059	1,03960396039604	-3,64356435643564
40129	946	2139	1643	3224,63989257813	-10,9108910891089	0,900990099009901	-4,00990099009901
40289	945	2143	1660	3229,52270507813	-10,9207920792079	0,940594059405941	-3,84158415841584
40449	958	2146	1660	3234,40551757813	-10,7920792079208	0,97029702970297	-3,84158415841584
40609	940	2143	1677	3239,28833007813	-10,970297029703	0,940594059405941	-3,67326732673267
40769	935	2163	1657	3244,17114257813	-11,019801980198	1,13861386138614	-3,87128712871287
40929	963	2172	1674	3249,05395507813	-10,7425742574257	1,22772277227723	-3,7029702970297
41089	924	2136	1651	3253,93676757813	-11,1287128712871	0,871287128712871	-3,93069306930693
41249	944	2114	1652	3258,81958007813	-10,9306930693069	0,653465346534653	-3,92079207920792
41409	949	2138	1667	3263,70239257813	-10,8811881188119	0,891089108910891	-3,77227722772277
41569	939	2166	1656	3268,58520507813	-10,980198019802	1,16831683168317	-3,88118811881188
41729	941	2147	1645	3273,46801757813	-10,960396039604	0,98019801980198	-3,99009900990099
41889	942	2163	1639	3278,35083007813	-10,950495049505	1,13861386138614	-4,04950495049505
42049	956	2147	1657	3283,23364257813	-10,8118811881188	0,98019801980198	-3,87128712871287
42209	953	2140	1649	3288,11645507813	-10,8415841584158	0,910891089108911	-3,95049504950495
42369	934	2152	1655	3292,99926757813	-11,029702970297	1,02970297029703	-3,89108910891089
42529	936	2158	1674	3297,88208007813	-11,009900990099	1,08910891089109	-3,7029702970297
42689	1000	2155	1866	3302,76489257813	-10,3762376237624	1,05940594059406	-1,8019801980198
42849	965	2141	1916	3307,64770507813	-10,7227722772277	0,920792079207921	-1,30693069306931
43009	952	2138	1945	3312,53051757813	-10,8514851485149	0,891089108910891	-1,01980198019802
43169	964	2104	1429	3317,41333007813	-10,7326732673267	0,554455445544555	-6,12871287128713
43329	858	2068	1263	3322,29614257813	-11,7821782178218	0,198019801980198	-7,77227722772277
43489	937	2121	1302	3327,17895507813	-11	0,722772277227723	-7,38613861386139
43649	990	2125	1545	3332,06176757813	-10,4752475247525	0,762376237623762	-4,98019801980198
43809	973	2144	1690	3336,94458007813	-10,6435643564356	0,95049504950495	-3,54455445544554
43969	948	2194	1728	3341,82739257813	-10,8910891089109	1,44554455445545	-3,16831683168317
44129	918	2211	1721	3346,71020507813	-11,1881188118812	1,61386138613861	-3,23762376237624
44289	916	2197	1633	3351,59301757813	-11,2079207920792	1,47524752475248	-4,10891089108911
44449	861	2220	1554	3356,47583007813	-11,7524752475248	1,7029702970297	-4,89108910891089
44609	784	2286	1560	3361,35864257813	-12,5148514851485	2,35643564356436	-4,83168316831683
44769	556	2409	1681	3366,24145507813	-14,7722772277228	3,57425742574257	-3,63366336633663
44929	506	2416	1657	3371,12426757813	-15,2673267326733	3,64356435643564	-3,87128712871287
45089	531	2376	1758	3376,00708007813	-15,019801980198	3,24752475247525	-2,87128712871287
45249	743	2388	1731	3380,88989257813	-12,9207920792079	3,36633663366337	-3,13861386138614
45409	814	2354	1675	3385,77270507813	-12,2178217821782	3,02970297029703	-3,69306930693069
45569	783	2308	1712	3390,65551757813	-12,5247524752475	2,57425742574257	-3,32673267326733
45729	780	2268	1732	3395,53833007813	-12,5544554455446	2,17821782178218	-3,12871287128713
45889	765	2251	1732	3400,42114257813	-12,7029702970297	2,00990099009901	-3,12871287128713
46049	779	2277	1751	3405,30395507813	-12,5643564356436	2,26732673267327	-2,94059405940594
46209	799	2255	1738	3410,18676757813	-12,3663366336634	2,04950495049505	-3,06930693069307
46369	758	2272	1686	3415,06958007813	-12,7722772277228	2,21782178217822	-3,58415841584158
46529	776	2313	1743	3419,95239257813	-12,5940594059406	2,62376237623762	-3,01980198019802
46689	783	2339	1714	3424,83520507813	-12,5247524752475	2,88118811881188	-3,30693069306931
46849	795	2343	1740	3429,71801757813	-12,4059405940594	2,92079207920792	-3,04950495049505
47009	736	2360	1697	3434,60083007813	-12,990099009901	3,08910891089109	-3,47524752475248
47169	731	2356	1684	3439,48364257813	-13,039603960396	3,04950495049505	-3,6039603960396
47329	757	2354	1639	3444,36645507813	-12,7821782178218	3,02970297029703	-4,04950495049505
47489	781	2329	1642	3449,24926757813	-12,5445544554455	2,78217821782178	-4,01980198019802
47649	1285	1756	1751	3454,13208007813	-7,55445544554455	-2,89108910891089	-2,94059405940594
47809	1181	2073	1799	3459,01489257813	-8,58415841584158	0,247524752475248	-2,46534653465347
47969	976	2184	1295	3463,89770507813	-10,6138613861386	1,34653465346535	-7,45544554455446
48129	1042	2159	1459	3468,78051757813	-9,96039603960396	1,0990099009901	-5,83168316831683
48289	1130	2170	1489	3473,66333007813	-9,08910891089109	1,20792079207921	-5,53465346534654
48449	1142	2273	1476	3478,54614257813	-8,97029702970297	2,22772277227723	-5,66336633663366
48609	1187	2360	1630	3483,42895507813	-8,52475247524752	3,08910891089109	-4,13861386138614
48769	1228	2401	1583	3488,31176757813	-8,11881188118812	3,4950495049505	-4,6039603960396
48929	1312	2487	1614	3493,19458007813	-7,28712871287129	4,34653465346535	-4,2970297029703
49089	1364	2580	1562	3498,07739257813	-6,77227722772277	5,26732673267327	-4,81188118811881
49249	1363	2701	1419	3502,96020507813	-6,78217821782178	6,46534653465347	-6,22772277227723
49409	1438	2817	1500	3507,84301757813	-6,03960396039604	7,61386138613861	-5,42574257425743
49569	1423	2956	1383	3512,72583007813	-6,18811881188119	8,99009900990099	-6,58415841584158
49729	1532	3022	1556	3517,60864257813	-5,10891089108911	9,64356435643564	-4,87128712871287
49889	1579	3037	1616	3522,49145507813	-4,64356435643564	9,79207920792079	-4,27722772277228
50049	1596	3021	1626	3527,37426757813	-4,47524752475248	9,63366336633663	-4,17821782178218
50209	1660	3092	1597	3532,25708007813	-3,84158415841584	10,3366336633663	-4,46534653465347
50369	1863	3134	1664	3537,13989257813	-1,83168316831683	10,7524752475248	-3,8019801980198
50529	1921	3315	1574	3542,02270507813	-1,25742574257426	12,5445544554455	-4,69306930693069
50689	1880	3297	1613	3546,90551757813	-1,66336633663366	12,3663366336634	-4,30693069306931
50849	1837	3183	1668	3551,78833007813	-2,08910891089109	11,2376237623762	-3,76237623762376
51009	1796	3216	1714	3556,67114257813	-2,4950495049505	11,5643564356436	-3,30693069306931
51169	1753	3203	1658	3561,55395507813	-2,92079207920792	11,4356435643564	-3,86138613861386
51329	1820	3163	1668	3566,43676757813	-2,25742574257426	11,039603960396	-3,76237623762376
51489	1859	3157	1676	3571,31958007813	-1,87128712871287	10,980198019802	-3,68316831683168
51649	1904	3102	1653	3576,20239257813	-1,42574257425743	10,4356435643564	-3,91089108910891
51809	1957	3067	1627	3581,08520507813	-0,900990099009901	10,0891089108911	-4,16831683168317
51969	1989	3011	1588	3585,96801757813	-0,584158415841584	9,53465346534654	-4,55445544554455
52129	1992	2982	1585	3590,85083007813	-0,554455445544555	9,24752475247525	-4,58415841584158
52289	2007	2959	1576	3595,73364257813	-0,405940594059406	9,01980198019802	-4,67326732673267
52449	2008	2913	1483	3600,61645507813	-0,396039603960396	8,56435643564356	-5,59405940594059
52609	1880	2707	1617	3605,49926757813	-1,66336633663366	6,52475247524753	-4,26732673267327
52769	1943	2625	1618	3610,38208007813	-1,03960396039604	5,71287128712871	-4,25742574257426
52929	2214	2745	1493	3615,26489257813	1,64356435643564	6,9009900990099	-5,4950495049505
53089	2232	2849	1449	3620,14770507813	1,82178217821782	7,93069306930693	-5,93069306930693
53249	2240	2822	1573	3625,03051757813	1,9009900990099	7,66336633663366	-4,7029702970297
53409	2248	2825	1521	3629,91333007813	1,98019801980198	7,69306930693069	-5,21782178217822
53569	2186	2874	1547	3634,79614257813	1,36633663366337	8,17821782178218	-4,96039603960396
53729	2189	2916	1616	3639,67895507813	1,3960396039604	8,59405940594059	-4,27722772277228
53889	2255	2964	1669	3644,56176757813	2,04950495049505	9,06930693069307	-3,75247524752475
54049	2334	2952	1638	3649,44458007813	2,83168316831683	8,95049504950495	-4,05940594059406
54209	2346	2969	1625	3654,32739257813	2,95049504950495	9,11881188118812	-4,18811881188119
54369	2344	2955	1604	3659,21020507813	2,93069306930693	8,98019801980198	-4,3960396039604
54529	2367	2933	1562	3664,09301757813	3,15841584158416	8,76237623762376	-4,81188118811881
54689	2393	2979	1528	3668,97583007813	3,41584158415842	9,21782178217822	-5,14851485148515
54849	2421	2946	1546	3673,85864257813	3,69306930693069	8,89108910891089	-4,97029702970297
55009	2456	2891	1525	3678,74145507813	4,03960396039604	8,34653465346535	-5,17821782178218
55169	2379	2861	1577	3683,62426757813	3,27722772277228	8,04950495049505	-4,66336633663366
55329	2424	2834	1578	3688,50708007813	3,72277227722772	7,78217821782178	-4,65346534653465
55489	2406	2802	1532	3693,38989257813	3,54455445544554	7,46534653465347	-5,10891089108911
55649	2429	2736	1574	3698,27270507813	3,77227722772277	6,81188118811881	-4,69306930693069
55809	2442	2667	1781	3703,15551757813	3,9009900990099	6,12871287128713	-2,64356435643564
55969	2426	2789	1833	3708,03833007813	3,74257425742574	7,33663366336634	-2,12871287128713
56129	2410	2784	1691	3712,92114257813	3,58415841584158	7,28712871287129	-3,53465346534653
56289	2444	2751	1599	3717,80395507813	3,92079207920792	6,96039603960396	-4,44554455445545
56449	2492	2723	1539	3722,68676757813	4,3960396039604	6,68316831683168	-5,03960396039604
56609	2496	2705	1533	3727,56958007813	4,43564356435644	6,50495049504951	-5,0990099009901
56769	2563	2739	1547	3732,45239257813	5,0990099009901	6,84158415841584	-4,96039603960396
56929	2572	2746	1629	3737,33520507813	5,18811881188119	6,91089108910891	-4,14851485148515
57089	2638	2815	1704	3742,21801757813	5,84158415841584	7,59405940594059	-3,40594059405941
57249	2624	2809	1824	3747,10083007813	5,7029702970297	7,53465346534654	-2,21782178217822
57409	2695	2795	1779	3751,98364257813	6,40594059405941	7,3960396039604	-2,66336633663366
57569	2832	2795	1795	3756,86645507813	7,76237623762376	7,3960396039604	-2,50495049504951
57729	2898	2833	1703	3761,74926757813	8,41584158415842	7,77227722772277	-3,41584158415842
57889	2852	2775	1761	3766,63208007813	7,96039603960396	7,1980198019802	-2,84158415841584
58049	2702	2711	1893	3771,51489257813	6,47524752475248	6,56435643564356	-1,53465346534653
58209	2520	2737	1834	3776,39770507813	4,67326732673267	6,82178217821782	-2,11881188118812
58369	2400	2667	1737	3781,28051757813	3,48514851485149	6,12871287128713	-3,07920792079208
58529	2423	2685	1619	3786,16333007813	3,71287128712871	6,30693069306931	-4,24752475247525
58689	2571	2717	1551	3791,04614257813	5,17821782178218	6,62376237623762	-4,92079207920792
58849	2699	2653	1673	3795,92895507813	6,44554455445545	5,99009900990099	-3,71287128712871
59009	2772	2756	1646	3800,81176757813	7,16831683168317	7,00990099009901	-3,98019801980198
59169	2747	2735	1677	3805,69458007813	6,92079207920792	6,8019801980198	-3,67326732673267
59329	2732	2691	1699	3810,57739257813	6,77227722772277	6,36633663366337	-3,45544554455446
59489	2787	2695	1687	3815,46020507813	7,31683168316832	6,40594059405941	-3,57425742574257
59649	2800	2657	1702	3820,34301757813	7,44554455445545	6,02970297029703	-3,42574257425743
59809	2848	2667	1645	3825,22583007813	7,92079207920792	6,12871287128713	-3,99009900990099
59969	2859	2667	1624	3830,10864257813	8,02970297029703	6,12871287128713	-4,1980198019802
60129	2872	2587	1651	3834,99145507813	8,15841584158416	5,33663366336634	-3,93069306930693
60289	2889	2523	1674	3839,87426757813	8,32673267326733	4,7029702970297	-3,7029702970297
60449	2943	2549	1654	3844,75708007813	8,86138613861386	4,96039603960396	-3,9009900990099
60609	2927	2494	1674	3849,63989257813	8,7029702970297	4,41584158415842	-3,7029702970297
60769	2934	2513	1706	3854,52270507813	8,77227722772277	4,6039603960396	-3,38613861386139
60929	2939	2486	1737	3859,40551757813	8,82178217821782	4,33663366336634	-3,07920792079208
61089	2935	2491	1745	3864,28833007813	8,78217821782178	4,38613861386139	-3
61249	2937	2500	1760	3869,17114257813	8,8019801980198	4,47524752475248	-2,85148514851485
61409	2905	2524	1764	3874,05395507813	8,48514851485148	4,71287128712871	-2,81188118811881
61569	2874	2593	1692	3878,93676757813	8,17821782178218	5,3960396039604	-3,52475247524752
61729	2830	2545	1637	3883,81958007813	7,74257425742574	4,92079207920792	-4,06930693069307
61889	2833	2541	1625	3888,70239257813	7,77227722772277	4,88118811881188	-4,18811881188119
62049	2817	2537	1620	3893,58520507813	7,61386138613861	4,84158415841584	-4,23762376237624
62209	2801	2536	1655	3898,46801757813	7,45544554455446	4,83168316831683	-3,89108910891089
62369	2792	2519	1633	3903,35083007813	7,36633663366337	4,66336633663366	-4,10891089108911
62529	2790	2543	1604	3908,23364257813	7,34653465346535	4,9009900990099	-4,3960396039604
62689	2771	2542	1594	3913,11645507813	7,15841584158416	4,89108910891089	-4,4950495049505
62849	2758	2506	1598	3917,99926757813	7,02970297029703	4,53465346534654	-4,45544554455446
63009	2808	2492	1622	3922,88208007813	7,52475247524753	4,3960396039604	-4,21782178217822
63169	2875	2481	1663	3927,76489257813	8,18811881188119	4,28712871287129	-3,81188118811881
63329	2882	2473	1684	3932,64770507813	8,25742574257426	4,20792079207921	-3,6039603960396
63489	2877	2441	1690	3937,53051757813	8,20792079207921	3,89108910891089	-3,54455445544554
63649	2872	2463	1677	3942,41333007813	8,15841584158416	4,10891089108911	-3,67326732673267
63809	2866	2490	1629	3947,29614257813	8,0990099009901	4,37623762376238	-4,14851485148515
63969	2852	2474	1616	3952,17895507813	7,96039603960396	4,21782178217822	-4,27722772277228
64129	2832	2488	1607	3957,06176757813	7,76237623762376	4,35643564356436	-4,36633663366337
64289	2848	2485	1627	3961,94458007813	7,92079207920792	4,32673267326733	-4,16831683168317
64449	2844	2479	1634	3966,82739257813	7,88118811881188	4,26732673267327	-4,0990099009901
64609	2852	2454	1652	3971,71020507813	7,96039603960396	4,01980198019802	-3,92079207920792
64769	2848	2418	1679	3976,59301757813	7,92079207920792	3,66336633663366	-3,65346534653465
64929	2785	2477	1628	3981,47583007813	7,2970297029703	4,24752475247525	-4,15841584158416
65089	2742	2457	1628	3986,35864257813	6,87128712871287	4,04950495049505	-4,15841584158416
65249	2778	2412	1633	3991,24145507813	7,22772277227723	3,6039603960396	-4,10891089108911
65409	2822	2426	1638	3996,12426757813	7,66336633663366	3,74257425742574	-4,05940594059406
33	2816	2426	1680	4001,00708007813	7,6039603960396	3,74257425742574	-3,64356435643564
193	2833	2416	1678	4005,88989257813	7,77227722772277	3,64356435643564	-3,66336633663366
353	2819	2412	1658	4010,77270507813	7,63366336633663	3,6039603960396	-3,86138613861386
513	2830	2423	1603	4015,65551757813	7,74257425742574	3,71287128712871	-4,40594059405941
673	2833	2451	1569	4020,53833007813	7,77227722772277	3,99009900990099	-4,74257425742574
833	2841	2455	1543	4025,42114257813	7,85148514851485	4,02970297029703	-5
993	2840	2455	1543	4030,30395507813	7,84158415841584	4,02970297029703	-5
1153	2818	2411	1517	4035,18676757813	7,62376237623762	3,59405940594059	-5,25742574257426
1313	2829	2411	1553	4040,06958007813	7,73267326732673	3,59405940594059	-4,9009900990099
1473	2813	2426	1565	4044,95239257813	7,57425742574257	3,74257425742574	-4,78217821782178
1633	2791	2449	1572	4049,83520507813	7,35643564356436	3,97029702970297	-4,71287128712871
1793	2800	2418	1623	4054,71801757813	7,44554455445545	3,66336633663366	-4,20792079207921
1953	2807	2393	1648	4059,60083007813	7,51485148514852	3,41584158415842	-3,96039603960396
2113	2806	2387	1690	4064,48364257813	7,50495049504951	3,35643564356436	-3,54455445544554
2273	2797	2410	1660	4069,36645507813	7,41584158415842	3,58415841584158	-3,84158415841584
2433	2813	2375	1671	4074,24926757813	7,57425742574257	3,23762376237624	-3,73267326732673
2593	2829	2351	1654	4079,13208007813	7,73267326732673	3	-3,9009900990099
2753	2853	2375	1587	4084,01489257813	7,97029702970297	3,23762376237624	-4,56435643564356
2913	2896	2367	1656	4088,89770507813	8,3960396039604	3,15841584158416	-3,88118811881188
3073	2884	2381	1628	4093,78051757813	8,27722772277228	3,2970297029703	-4,15841584158416
3233	2864	2386	1594	4098,66333007813	8,07920792079208	3,34653465346535	-4,4950495049505
3393	2843	2404	1602	4103,54614257813	7,87128712871287	3,52475247524752	-4,41584158415842
3553	2849	2405	1579	4108,42895507813	7,93069306930693	3,53465346534653	-4,64356435643564
3713	2805	2405	1603	4113,31176757813	7,4950495049505	3,53465346534653	-4,40594059405941
3873	2822	2407	1575	4118,19458007813	7,66336633663366	3,55445544554455	-4,68316831683168
4033	2818	2395	1585	4123,07739257813	7,62376237623762	3,43564356435644	-4,58415841584158
4193	2790	2384	1650	4127,96020507813	7,34653465346535	3,32673267326733	-3,94059405940594
4353	2774	2370	1638	4132,84301757813	7,18811881188119	3,18811881188119	-4,05940594059406
4513	2743	2344	1659	4137,72583007813	6,88118811881188	2,93069306930693	-3,85148514851485
4673	2740	2354	1628	4142,60864257813	6,85148514851485	3,02970297029703	-4,15841584158416
4833	2701	2365	1598	4147,49145507813	6,46534653465347	3,13861386138614	-4,45544554455446
4993	2713	2378	1614	4152,37426757813	6,58415841584158	3,26732673267327	-4,2970297029703
5153	2750	2358	1600	4157,25708007813	6,95049504950495	3,06930693069307	-4,43564356435644
5313	2766	2386	1570	4162,13989257813	7,10891089108911	3,34653465346535	-4,73267326732673
5473	2813	2382	1588	4167,02270507813	7,57425742574257	3,30693069306931	-4,55445544554455
5633	2808	2391	1581	4171,90551757813	7,52475247524753	3,3960396039604	-4,62376237623762
5793	2842	2395	1586	4176,78833007813	7,86138613861386	3,43564356435644	-4,57425742574257
5953	2872	2400	1586	4181,67114257813	8,15841584158416	3,48514851485149	-4,57425742574257
6113	2935	2435	1596	4186,55395507813	8,78217821782178	3,83168316831683	-4,47524752475248
6273	2916	2403	1627	4191,43676757813	8,59405940594059	3,51485148514851	-4,16831683168317
6433	2943	2393	1601	4196,31958007813	8,86138613861386	3,41584158415842	-4,42574257425743
6593	2935	2391	1633	4201,20239257813	8,78217821782178	3,3960396039604	-4,10891089108911
6753	2884	2403	1657	4206,08520507813	8,27722772277228	3,51485148514851	-3,87128712871287
6913	2880	2385	1652	4210,96801757813	8,23762376237624	3,33663366336634	-3,92079207920792
7073	2858	2388	1663	4215,85083007813	8,01980198019802	3,36633663366337	-3,81188118811881
7233	2806	2400	1643	4220,73364257813	7,50495049504951	3,48514851485149	-4,00990099009901
7393	2889	2765	2007	4225,61645507813	8,32673267326733	7,0990099009901	-0,405940594059406
7553	2873	2334	1484	4230,49926757813	8,16831683168317	2,83168316831683	-5,58415841584158
7713	2829	2437	1645	4235,38208007813	7,73267326732673	3,85148514851485	-3,99009900990099
7873	2807	2354	1594	4240,26489257813	7,51485148514852	3,02970297029703	-4,4950495049505
8033	2796	2353	1585	4245,14770507813	7,40594059405941	3,01980198019802	-4,58415841584158
8193	2812	2381	1577	4250,03051757813	7,56435643564356	3,2970297029703	-4,66336633663366
8353	2730	2408	1536	4254,91333007813	6,75247524752475	3,56435643564356	-5,06930693069307
8513	2775	2388	1463	4259,79614257813	7,1980198019802	3,36633663366337	-5,79207920792079
8673	2819	2348	1426	4264,67895507813	7,63366336633663	2,97029702970297	-6,15841584158416
8833	2805	2346	1497	4269,56176757813	7,4950495049505	2,95049504950495	-5,45544554455446
8993	2912	2334	1481	4274,44458007813	8,55445544554455	2,83168316831683	-5,61386138613861
9153	2885	2363	1524	4279,32739257813	8,28712871287129	3,11881188118812	-5,18811881188119
9313	2900	2340	1520	4284,21020507813	8,43564356435644	2,89108910891089	-5,22772277227723
9473	2869	2369	1515	4289,09301757813	8,12871287128713	3,17821782178218	-5,27722772277228
9633	2882	2317	1553	4293,97583007813	8,25742574257426	2,66336633663366	-4,9009900990099
9793	2922	2319	1542	4298,85864257813	8,65346534653465	2,68316831683168	-5,00990099009901
9953	2920	2307	1530	4303,74145507813	8,63366336633663	2,56435643564356	-5,12871287128713
10113	2909	2300	1561	4308,62426757813	8,52475247524752	2,4950495049505	-4,82178217821782
10273	2895	2314	1524	4313,50708007813	8,38613861386139	2,63366336633663	-5,18811881188119
10433	2859	2311	1550	4318,38989257813	8,02970297029703	2,6039603960396	-4,93069306930693
10593	2860	2302	1533	4323,27270507813	8,03960396039604	2,51485148514851	-5,0990099009901
10753	2854	2281	1511	4328,15551757813	7,98019801980198	2,30693069306931	-5,31683168316832
10913	2844	2278	1533	4333,03833007813	7,88118811881188	2,27722772277228	-5,0990099009901
11073	2836	2289	1550	4337,92114257813	7,8019801980198	2,38613861386139	-4,93069306930693
11233	2841	2265	1608	4342,80395507813	7,85148514851485	2,14851485148515	-4,35643564356436
11393	2806	2198	1635	4347,68676757813	7,50495049504951	1,48514851485149	-4,08910891089109
11553	2807	2219	1588	4352,56958007813	7,51485148514852	1,69306930693069	-4,55445544554455
11713	2798	2229	1547	4357,45239257813	7,42574257425743	1,79207920792079	-4,96039603960396
11873	2820	2215	1539	4362,33520507813	7,64356435643564	1,65346534653465	-5,03960396039604
12033	2814	2227	1537	4367,21801757813	7,58415841584158	1,77227722772277	-5,05940594059406
12193	2832	2216	1577	4372,10083007813	7,76237623762376	1,66336633663366	-4,66336633663366
12353	2820	2201	1539	4376,98364257813	7,64356435643564	1,51485148514851	-5,03960396039604
12513	2850	2190	1552	4381,86645507813	7,94059405940594	1,40594059405941	-4,91089108910891
12673	2888	2209	1565	4386,74926757813	8,31683168316832	1,59405940594059	-4,78217821782178
12833	2879	2191	1549	4391,63208007813	8,22772277227723	1,41584158415842	-4,94059405940594
12993	2913	2178	1533	4396,51489257813	8,56435643564356	1,28712871287129	-5,0990099009901
13153	2922	2198	1520	4401,39770507813	8,65346534653465	1,48514851485149	-5,22772277227723
13313	2908	2184	1522	4406,28051757813	8,51485148514852	1,34653465346535	-5,20792079207921
13473	2887	2172	1530	4411,16333007813	8,30693069306931	1,22772277227723	-5,12871287128713
13633	2914	2201	1519	4416,04614257813	8,57425742574257	1,51485148514851	-5,23762376237624
13793	2877	2162	1576	4420,92895507813	8,20792079207921	1,12871287128713	-4,67326732673267
13953	2927	2177	1558	4425,81176757813	8,7029702970297	1,27722772277228	-4,85148514851485
14113	2882	2159	1562	4430,69458007813	8,25742574257426	1,0990099009901	-4,81188118811881
14273	2845	2171	1516	4435,57739257813	7,89108910891089	1,21782178217822	-5,26732673267327
14433	2874	2176	1562	4440,46020507813	8,17821782178218	1,26732673267327	-4,81188118811881
14593	3108	1915	1537	4445,34301757813	10,4950495049505	-1,31683168316832	-5,05940594059406
14753	2882	2164	1562	4450,22583007813	8,25742574257426	1,14851485148515	-4,81188118811881
14913	3007	2179	1592	4455,10864257813	9,4950495049505	1,2970297029703	-4,51485148514852
15073	2865	2162	1579	4459,99145507813	8,08910891089109	1,12871287128713	-4,64356435643564
15233	2864	2179	1564	4464,87426757813	8,07920792079208	1,2970297029703	-4,79207920792079
15393	2864	2184	1612	4469,75708007813	8,07920792079208	1,34653465346535	-4,31683168316832
15553	2884	2115	1559	4474,63989257813	8,27722772277228	0,663366336633663	-4,84158415841584
15713	2861	2122	1570	4479,52270507813	8,04950495049505	0,732673267326733	-4,73267326732673
15873	2858	2141	1562	4484,40551757813	8,01980198019802	0,920792079207921	-4,81188118811881
16033	2855	2151	1559	4489,28833007813	7,99009900990099	1,01980198019802	-4,84158415841584
16193	2867	2167	1569	4494,17114257813	8,10891089108911	1,17821782178218	-4,74257425742574
16353	2867	2124	1525	4499,05395507813	8,10891089108911	0,752475247524752	-5,17821782178218
16513	2880	2144	1554	4503,93676757813	8,23762376237624	0,95049504950495	-4,89108910891089
16673	2866	2138	1574	4508,81958007813	8,0990099009901	0,891089108910891	-4,69306930693069
16833	2859	2106	1562	4513,70239257813	8,02970297029703	0,574257425742574	-4,81188118811881
16993	2859	2147	1590	4518,58520507813	8,02970297029703	0,98019801980198	-4,53465346534654
17153	2782	2115	1636	4523,46801757813	7,26732673267327	0,663366336633663	-4,07920792079208
17313	2835	2140	1591	4528,35083007813	7,79207920792079	0,910891089108911	-4,52475247524753
17473	2841	2141	1600	4533,23364257813	7,85148514851485	0,920792079207921	-4,43564356435644
17633	2845	2136	1629	4538,11645507813	7,89108910891089	0,871287128712871	-4,14851485148515
17793	2871	2152	1616	4542,99926757813	8,14851485148515	1,02970297029703	-4,27722772277228
17953	2866	2117	1628	4547,88208007813	8,0990099009901	0,683168316831683	-4,15841584158416
18113	2861	2154	1599	4552,76489257813	8,04950495049505	1,04950495049505	-4,44554455445545
18273	2830	2138	1575	4557,64770507813	7,74257425742574	0,891089108910891	-4,68316831683168
18433	2877	2073	1703	4562,53051757813	8,20792079207921	0,247524752475248	-3,41584158415842
18593	2880	2158	1589	4567,41333007813	8,23762376237624	1,08910891089109	-4,54455445544555
18753	2832	2149	1685	4572,29614257813	7,76237623762376	1	-3,59405940594059
18913	2873	2118	1613	4577,17895507813	8,16831683168317	0,693069306930693	-4,30693069306931
19073	2907	2038	1668	4582,06176757813	8,5049504950495	-0,099009900990099	-3,76237623762376
19233	2814	2074	1812	4586,94458007813	7,58415841584158	0,257425742574257	-2,33663366336634
19393	2981	2087	1612	4591,82739257813	9,23762376237624	0,386138613861386	-4,31683168316832
19553	2866	2109	1435	4596,71020507813	8,0990099009901	0,603960396039604	-6,06930693069307
19713	2921	2208	1749	4601,59301757813	8,64356435643564	1,58415841584158	-2,96039603960396
19873	2700	2152	1158	4606,47583007813	6,45544554455446	1,02970297029703	-8,81188118811881
20033	2852	2156	1739	4611,35864257813	7,96039603960396	1,06930693069307	-3,05940594059406
20193	2905	2169	1691	4616,24145507813	8,48514851485148	1,1980198019802	-3,53465346534653
20353	2905	2103	1543	4621,12426757813	8,48514851485148	0,544554455445545	-5
20513	2853	2139	1647	4626,00708007813	7,97029702970297	0,900990099009901	-3,97029702970297
20673	2848	2171	1670	4630,88989257813	7,92079207920792	1,21782178217822	-3,74257425742574
20833	2844	2176	1683	4635,77270507813	7,88118811881188	1,26732673267327	-3,61386138613861
20993	2853	2171	1686	4640,65551757813	7,97029702970297	1,21782178217822	-3,58415841584158
21153	2877	2187	1682	4645,53833007813	8,20792079207921	1,37623762376238	-3,62376237623762
21313	2864	2197	1631	4650,42114257813	8,07920792079208	1,47524752475248	-4,12871287128713
21473	2882	2171	1608	4655,30395507813	8,25742574257426	1,21782178217822	-4,35643564356436
21633	2894	2106	1621	4660,18676757813	8,37623762376238	0,574257425742574	-4,22772277227723
21793	2861	2148	1690	4665,06958007813	8,04950495049505	0,99009900990099	-3,54455445544554
21953	2870	2095	1650	4669,95239257813	8,13861386138614	0,465346534653465	-3,94059405940594
22113	2878	2121	1670	4674,83520507813	8,21782178217822	0,722772277227723	-3,74257425742574
22273	2919	2109	1665	4679,71801757813	8,62376237623762	0,603960396039604	-3,79207920792079
22433	2887	2134	1603	4684,60083007813	8,30693069306931	0,851485148514851	-4,40594059405941
22593	2840	2130	1638	4689,48364257813	7,84158415841584	0,811881188118812	-4,05940594059406
22753	2920	2202	1936	4694,36645507813	8,63366336633663	1,52475247524752	-1,10891089108911
22913	2806	2179	1666	4699,24926757813	7,50495049504951	1,2970297029703	-3,78217821782178
23073	2864	2163	1671	4704,13208007813	8,07920792079208	1,13861386138614	-3,73267326732673
23233	2851	2167	1620	4709,01489257813	7,95049504950495	1,17821782178218	-4,23762376237624
23393	2870	2156	1679	4713,89770507813	8,13861386138614	1,06930693069307	-3,65346534653465
23553	2835	2143	1636	4718,78051757813	7,79207920792079	0,940594059405941	-4,07920792079208
23713	2880	2155	1636	4723,66333007813	8,23762376237624	1,05940594059406	-4,07920792079208
23873	2860	2153	1641	4728,54614257813	8,03960396039604	1,03960396039604	-4,02970297029703
24033	2872	2170	1678	4733,42895507813	8,15841584158416	1,20792079207921	-3,66336633663366
24193	2872	2160	1674	4738,31176757813	8,15841584158416	1,10891089108911	-3,7029702970297
24353	2864	2139	1651	4743,19458007813	8,07920792079208	0,900990099009901	-3,93069306930693
24513	2890	2125	1664	4748,07739257813	8,33663366336634	0,762376237623762	-3,8019801980198
24673	2868	2174	1666	4752,96020507813	8,11881188118812	1,24752475247525	-3,78217821782178
24833	2866	2176	1672	4757,84301757813	8,0990099009901	1,26732673267327	-3,72277227722772
24993	2859	2131	1656	4762,72583007813	8,02970297029703	0,821782178217822	-3,88118811881188
25153	2856	2181	1587	4767,60864257813	8	1,31683168316832	-4,56435643564356
25313	2870	2139	1675	4772,49145507813	8,13861386138614	0,900990099009901	-3,69306930693069
25473	2851	2162	1648	4777,37426757813	7,95049504950495	1,12871287128713	-3,96039603960396
25633	2852	2138	1654	4782,25708007813	7,96039603960396	0,891089108910891	-3,9009900990099
25793	2871	2148	1672	4787,13989257813	8,14851485148515	0,99009900990099	-3,72277227722772
25953	2874	2159	1656	4792,02270507813	8,17821782178218	1,0990099009901	-3,88118811881188
26113	2858	2151	1665	4796,90551757813	8,01980198019802	1,01980198019802	-3,79207920792079
26273	2844	2157	1655	4801,78833007813	7,88118811881188	1,07920792079208	-3,89108910891089
26433	2850	2154	1661	4806,67114257813	7,94059405940594	1,04950495049505	-3,83168316831683
26593	2877	2171	1646	4811,55395507813	8,20792079207921	1,21782178217822	-3,98019801980198
26753	2870	2144	1652	4816,43676757813	8,13861386138614	0,95049504950495	-3,92079207920792
26913	2859	2141	1671	4821,31958007813	8,02970297029703	0,920792079207921	-3,73267326732673
27073	2884	2144	1655	4826,20239257813	8,27722772277228	0,95049504950495	-3,89108910891089
27233	2870	2154	1668	4831,08520507813	8,13861386138614	1,04950495049505	-3,76237623762376
27393	2870	2172	1659	4835,96801757813	8,13861386138614	1,22772277227723	-3,85148514851485
27553	2873	2167	1647	4840,85083007813	8,16831683168317	1,17821782178218	-3,97029702970297
27713	2872	2151	1664	4845,73364257813	8,15841584158416	1,01980198019802	-3,8019801980198
27873	2878	2167	1649	4850,61645507813	8,21782178217822	1,17821782178218	-3,95049504950495
28033	2872	2153	1654	4855,49926757813	8,15841584158416	1,03960396039604	-3,9009900990099
28193	2856	2139	1669	4860,38208007813	8	0,900990099009901	-3,75247524752475
28353	2868	2154	1666	4865,26489257813	8,11881188118812	1,04950495049505	-3,78217821782178
28513	2872	2184	1678	4870,14770507813	8,15841584158416	1,34653465346535	-3,66336633663366
28673	2866	2169	1653	4875,03051757813	8,0990099009901	1,1980198019802	-3,91089108910891
28833	2851	2163	1647	4879,91333007813	7,95049504950495	1,13861386138614	-3,97029702970297
28993	2872	2151	1666	4884,79614257813	8,15841584158416	1,01980198019802	-3,78217821782178
29153	2858	2168	1671	4889,67895507813	8,01980198019802	1,18811881188119	-3,73267326732673
29313	2861	2137	1658	4894,56176757813	8,04950495049505	0,881188118811881	-3,86138613861386
29473	2852	2152	1645	4899,44458007813	7,96039603960396	1,02970297029703	-3,99009900990099
29633	2870	2158	1644	4904,32739257813	8,13861386138614	1,08910891089109	-4
29793	2852	2156	1661	4909,21020507813	7,96039603960396	1,06930693069307	-3,83168316831683
29953	2867	2154	1656	4914,09301757813	8,10891089108911	1,04950495049505	-3,88118811881188
30113	2868	2151	1650	4918,97583007813	8,11881188118812	1,01980198019802	-3,94059405940594
30273	2877	2150	1648	4923,85864257813	8,20792079207921	1,00990099009901	-3,96039603960396
30433	2884	2139	1668	4928,74145507813	8,27722772277228	0,900990099009901	-3,76237623762376
30593	2873	2151	1655	4933,62426757813	8,16831683168317	1,01980198019802	-3,89108910891089
30753	2875	2134	1676	4938,50708007813	8,18811881188119	0,851485148514851	-3,68316831683168
30913	2875	2159	1664	4943,38989257813	8,18811881188119	1,0990099009901	-3,8019801980198
31073	2852	2159	1659	4948,27270507813	7,96039603960396	1,0990099009901	-3,85148514851485
31233	2871	2162	1644	4953,15551757813	8,14851485148515	1,12871287128713	-4
31393	2861	2167	1659	4958,03833007813	8,04950495049505	1,17821782178218	-3,85148514851485
31553	2881	2144	1666	4962,92114257813	8,24752475247525	0,95049504950495	-3,78217821782178
31713	2862	2142	1665	4967,80395507813	8,05940594059406	0,930693069306931	-3,79207920792079
31873	2858	2172	1643	4972,68676757813	8,01980198019802	1,22772277227723	-4,00990099009901
32033	2840	2164	1659	4977,56958007813	7,84158415841584	1,14851485148515	-3,85148514851485
32193	2856	2151	1669	4982,45239257813	8	1,01980198019802	-3,75247524752475
32353	2867	2157	1679	4987,33520507813	8,10891089108911	1,07920792079208	-3,65346534653465
32513	2870	2161	1687	4992,21801757813	8,13861386138614	1,11881188118812	-3,57425742574257
32673	2880	2138	1672	4997,10083007813	8,23762376237624	0,891089108910891	-3,72277227722772
32833	2861	2144	1668	5001,98364257813	8,04950495049505	0,95049504950495	-3,76237623762376
32993	2857	2159	1656	5006,86645507813	8,00990099009901	1,0990099009901	-3,88118811881188
33153	2856	2157	1672	5011,74926757813	8	1,07920792079208	-3,72277227722772
33313	2852	2158	1670	5016,63208007813	7,96039603960396	1,08910891089109	-3,74257425742574
33473	2886	2137	1654	5021,51489257813	8,2970297029703	0,881188118811881	-3,9009900990099
33633	2858	2144	1678	5026,39770507813	8,01980198019802	0,95049504950495	-3,66336633663366
33793	2867	2126	1658	5031,28051757813	8,10891089108911	0,772277227722772	-3,86138613861386
33953	2861	2148	1669	5036,16333007813	8,04950495049505	0,99009900990099	-3,75247524752475
34113	2857	2150	1669	5041,04614257813	8,00990099009901	1,00990099009901	-3,75247524752475
34273	2884	2149	1642	5045,92895507813	8,27722772277228	1	-4,01980198019802
34433	2864	2155	1659	5050,81176757813	8,07920792079208	1,05940594059406	-3,85148514851485
34593	2872	2130	1648	5055,69458007813	8,15841584158416	0,811881188118812	-3,96039603960396
34753	2875	2153	1653	5060,57739257813	8,18811881188119	1,03960396039604	-3,91089108910891
34913	2859	2144	1648	5065,46020507813	8,02970297029703	0,95049504950495	-3,96039603960396
35073	2861	2155	1640	5070,34301757813	8,04950495049505	1,05940594059406	-4,03960396039604
35233	2859	2146	1635	5075,22583007813	8,02970297029703	0,97029702970297	-4,08910891089109
35393	2901	2128	1641	5080,10864257813	8,44554455445545	0,792079207920792	-4,02970297029703
35553	2852	2158	1690	5084,99145507813	7,96039603960396	1,08910891089109	-3,54455445544554
35713	2858	2127	1657	5089,87426757813	8,01980198019802	0,782178217821782	-3,87128712871287
35873	2851	2176	1660	5094,75708007813	7,95049504950495	1,26732673267327	-3,84158415841584
36033	2872	2166	1671	5099,63989257813	8,15841584158416	1,16831683168317	-3,73267326732673
36193	2855	2153	1654	5104,52270507813	7,99009900990099	1,03960396039604	-3,9009900990099
36353	2859	2153	1652	5109,40551757813	8,02970297029703	1,03960396039604	-3,92079207920792
36513	2873	2122	1656	5114,28833007813	8,16831683168317	0,732673267326733	-3,88118811881188
36673	2833	2154	1658	5119,17114257813	7,77227722772277	1,04950495049505	-3,86138613861386
36833	2870	2129	1653	5124,05395507813	8,13861386138614	0,801980198019802	-3,91089108910891
36993	2866	2145	1667	5128,93676757813	8,0990099009901	0,96039603960396	-3,77227722772277
37153	2842	2166	1650	5133,81958007813	7,86138613861386	1,16831683168317	-3,94059405940594
37313	2890	2163	1647	5138,70239257813	8,33663366336634	1,13861386138614	-3,97029702970297
37473	2864	2161	1653	5143,58520507813	8,07920792079208	1,11881188118812	-3,91089108910891
37633	2871	2120	1652	5148,46801757813	8,14851485148515	0,712871287128713	-3,92079207920792
37793	2879	2148	1668	5153,35083007813	8,22772277227723	0,99009900990099	-3,76237623762376
37953	2857	2157	1667	5158,23364257813	8,00990099009901	1,07920792079208	-3,77227722772277
38113	2854	2158	1666	5163,11645507813	7,98019801980198	1,08910891089109	-3,78217821782178
38273	2839	2152	1641	5167,99926757813	7,83168316831683	1,02970297029703	-4,02970297029703
38433	2878	2133	1661	5172,88208007813	8,21782178217822	0,841584158415842	-3,83168316831683
38593	2857	2131	1652	5177,76489257813	8,00990099009901	0,821782178217822	-3,92079207920792
38753	2876	2121	1663	5182,64770507813	8,1980198019802	0,722772277227723	-3,81188118811881
38913	2886	2148	1650	5187,53051757813	8,2970297029703	0,99009900990099	-3,94059405940594
39073	2869	2164	1660	5192,41333007813	8,12871287128713	1,14851485148515	-3,84158415841584
39233	2886	2151	1650	5197,29614257813	8,2970297029703	1,01980198019802	-3,94059405940594
39393	2869	2158	1667	5202,17895507813	8,12871287128713	1,08910891089109	-3,77227722772277
39553	2856	2123	1654	5207,06176757813	8	0,742574257425743	-3,9009900990099
39713	2876	2147	1661	5211,94458007813	8,1980198019802	0,98019801980198	-3,83168316831683
39873	2881	2149	1655	5216,82739257813	8,24752475247525	1	-3,89108910891089
40033	2870	2155	1648	5221,71020507813	8,13861386138614	1,05940594059406	-3,96039603960396
40193	2870	2146	1666	5226,59301757813	8,13861386138614	0,97029702970297	-3,78217821782178
40353	2901	2160	1670	5231,47583007813	8,44554455445545	1,10891089108911	-3,74257425742574
40513	2872	2153	1637	5236,35864257813	8,15841584158416	1,03960396039604	-4,06930693069307
40673	2862	2149	1654	5241,24145507813	8,05940594059406	1	-3,9009900990099
40833	2855	2157	1656	5246,12426757813	7,99009900990099	1,07920792079208	-3,88118811881188
40993	2867	2160	1649	5251,00708007813	8,10891089108911	1,10891089108911	-3,95049504950495
41153	2867	2168	1658	5255,88989257813	8,10891089108911	1,18811881188119	-3,86138613861386
41313	2844	2149	1651	5260,77270507813	7,88118811881188	1	-3,93069306930693
41473	2863	2125	1665	5265,65551757813	8,06930693069307	0,762376237623762	-3,79207920792079
41633	2868	2135	1667	5270,53833007813	8,11881188118812	0,861386138613861	-3,77227722772277
41793	2864	2159	1651	5275,42114257813	8,07920792079208	1,0990099009901	-3,93069306930693
41953	2838	2145	1672	5280,30395507813	7,82178217821782	0,96039603960396	-3,72277227722772
42113	2874	2138	1648	5285,18676757813	8,17821782178218	0,891089108910891	-3,96039603960396
42273	2856	2153	1662	5290,06958007813	8	1,03960396039604	-3,82178217821782
42433	2866	2165	1666	5294,95239257813	8,0990099009901	1,15841584158416	-3,78217821782178
42593	2897	2142	1658	5299,83520507813	8,40594059405941	0,930693069306931	-3,86138613861386
42753	2867	2174	1666	5304,71801757813	8,10891089108911	1,24752475247525	-3,78217821782178
42913	2866	2150	1669	5309,60083007813	8,0990099009901	1,00990099009901	-3,75247524752475
43073	2856	2137	1661	5314,48364257813	8	0,881188118811881	-3,83168316831683
43233	2876	2144	1661	5319,36645507813	8,1980198019802	0,95049504950495	-3,83168316831683
43393	2861	2150	1672	5324,24926757813	8,04950495049505	1,00990099009901	-3,72277227722772
43553	2841	2173	1653	5329,13208007813	7,85148514851485	1,23762376237624	-3,91089108910891
43713	2872	2164	1662	5334,01489257813	8,15841584158416	1,14851485148515	-3,82178217821782
43873	2864	2157	1629	5338,89770507813	8,07920792079208	1,07920792079208	-4,14851485148515
44033	2874	2128	1641	5343,78051757813	8,17821782178218	0,792079207920792	-4,02970297029703
44193	2858	2142	1664	5348,66333007813	8,01980198019802	0,930693069306931	-3,8019801980198
44353	2864	2172	1659	5353,54614257813	8,07920792079208	1,22772277227723	-3,85148514851485
44513	2861	2159	1660	5358,42895507813	8,04950495049505	1,0990099009901	-3,84158415841584
44673	2871	2152	1659	5363,31176757813	8,14851485148515	1,02970297029703	-3,85148514851485
44833	2874	2147	1649	5368,19458007813	8,17821782178218	0,98019801980198	-3,95049504950495
44993	2873	2153	1647	5373,07739257813	8,16831683168317	1,03960396039604	-3,97029702970297
45153	2854	2156	1647	5377,96020507813	7,98019801980198	1,06930693069307	-3,97029702970297
45313	2884	2163	1664	5382,84301757813	8,27722772277228	1,13861386138614	-3,8019801980198
45473	2854	2154	1639	5387,72583007813	7,98019801980198	1,04950495049505	-4,04950495049505
45633	2850	2156	1660	5392,60864257813	7,94059405940594	1,06930693069307	-3,84158415841584
45793	2870	2164	1648	5397,49145507813	8,13861386138614	1,14851485148515	-3,96039603960396
45953	2883	2146	1647	5402,37426757813	8,26732673267327	0,97029702970297	-3,97029702970297
46113	2861	2146	1687	5407,25708007813	8,04950495049505	0,97029702970297	-3,57425742574257
46273	2859	2150	1650	5412,13989257813	8,02970297029703	1,00990099009901	-3,94059405940594
46433	2847	2136	1681	5417,02270507813	7,91089108910891	0,871287128712871	-3,63366336633663
46593	2857	2143	1653	5421,90551757813	8,00990099009901	0,940594059405941	-3,91089108910891
46753	2864	2164	1658	5426,78833007813	8,07920792079208	1,14851485148515	-3,86138613861386
46913	2881	2158	1655	5431,67114257813	8,24752475247525	1,08910891089109	-3,89108910891089
47073	2871	2138	1626	5436,55395507813	8,14851485148515	0,891089108910891	-4,17821782178218
47233	2875	2171	1652	5441,43676757813	8,18811881188119	1,21782178217822	-3,92079207920792
47393	2844	2133	1653	5446,31958007813	7,88118811881188	0,841584158415842	-3,91089108910891
47553	2854	2162	1672	5451,20239257813	7,98019801980198	1,12871287128713	-3,72277227722772
47713	2859	2169	1647	5456,08520507813	8,02970297029703	1,1980198019802	-3,97029702970297
47873	2852	2153	1655	5460,96801757813	7,96039603960396	1,03960396039604	-3,89108910891089
48033	2853	2171	1663	5465,85083007813	7,97029702970297	1,21782178217822	-3,81188118811881
48193	2868	2152	1662	5470,73364257813	8,11881188118812	1,02970297029703	-3,82178217821782
48353	2861	2140	1661	5475,61645507813	8,04950495049505	0,910891089108911	-3,83168316831683
48513	2872	2141	1636	5480,49926757813	8,15841584158416	0,920792079207921	-4,07920792079208
48673	2877	2139	1658	5485,38208007813	8,20792079207921	0,900990099009901	-3,86138613861386
48833	2850	2117	1651	5490,26489257813	7,94059405940594	0,683168316831683	-3,93069306930693
48993	2871	2139	1634	5495,14770507813	8,14851485148515	0,900990099009901	-4,0990099009901
49153	2871	2175	1639	5500,03051757813	8,14851485148515	1,25742574257426	-4,04950495049505
49313	2881	2136	1690	5504,91333007813	8,24752475247525	0,871287128712871	-3,54455445544554
49473	2858	2146	1658	5509,79614257813	8,01980198019802	0,97029702970297	-3,86138613861386
49633	2876	2155	1685	5514,67895507813	8,1980198019802	1,05940594059406	-3,59405940594059
49793	2863	2147	1662	5519,56176757813	8,06930693069307	0,98019801980198	-3,82178217821782
49953	2858	2153	1650	5524,44458007813	8,01980198019802	1,03960396039604	-3,94059405940594
50113	2864	2158	1659	5529,32739257813	8,07920792079208	1,08910891089109	-3,85148514851485
50273	2888	2146	1669	5534,21020507813	8,31683168316832	0,97029702970297	-3,75247524752475
50433	2862	2131	1659	5539,09301757813	8,05940594059406	0,821782178217822	-3,85148514851485
50593	2853	2173	1630	5543,97583007813	7,97029702970297	1,23762376237624	-4,13861386138614
50753	2881	2159	1673	5548,85864257813	8,24752475247525	1,0990099009901	-3,71287128712871
50913	2856	2172	1674	5553,74145507813	8	1,22772277227723	-3,7029702970297
51073	2856	2160	1672	5558,62426757813	8	1,10891089108911	-3,72277227722772
51233	2866	2154	1688	5563,50708007813	8,0990099009901	1,04950495049505	-3,56435643564356
51393	2876	2147	1654	5568,38989257813	8,1980198019802	0,98019801980198	-3,9009900990099
51553	2850	2142	1673	5573,27270507813	7,94059405940594	0,930693069306931	-3,71287128712871
51713	2884	2144	1651	5578,15551757813	8,27722772277228	0,95049504950495	-3,93069306930693
51873	2884	2151	1653	5583,03833007813	8,27722772277228	1,01980198019802	-3,91089108910891
52033	2848	2158	1678	5587,92114257813	7,92079207920792	1,08910891089109	-3,66336633663366
52193	2891	2148	1667	5592,80395507813	8,34653465346535	0,99009900990099	-3,77227722772277
52353	2855	2146	1627	5597,68676757813	7,99009900990099	0,97029702970297	-4,16831683168317
52513	2866	2165	1678	5602,56958007813	8,0990099009901	1,15841584158416	-3,66336633663366
52673	2851	2145	1692	5607,45239257813	7,95049504950495	0,96039603960396	-3,52475247524752
52833	2874	2161	1662	5612,33520507813	8,17821782178218	1,11881188118812	-3,82178217821782
52993	2868	2147	1676	5617,21801757813	8,11881188118812	0,98019801980198	-3,68316831683168
53153	2857	2158	1655	5622,10083007813	8,00990099009901	1,08910891089109	-3,89108910891089
53313	2860	2150	1648	5626,98364257813	8,03960396039604	1,00990099009901	-3,96039603960396
53473	2872	2143	1655	5631,86645507813	8,15841584158416	0,940594059405941	-3,89108910891089
53633	2878	2149	1671	5636,74926757813	8,21782178217822	1	-3,73267326732673
53793	2864	2145	1649	5641,63208007813	8,07920792079208	0,96039603960396	-3,95049504950495
53953	2870	2151	1660	5646,51489257813	8,13861386138614	1,01980198019802	-3,84158415841584
54113	2866	2141	1671	5651,39770507813	8,0990099009901	0,920792079207921	-3,73267326732673
54273	2869	2167	1647	5656,28051757813	8,12871287128713	1,17821782178218	-3,97029702970297
54433	2855	2147	1670	5661,16333007813	7,99009900990099	0,98019801980198	-3,74257425742574
54593	2886	2176	1633	5666,04614257813	8,2970297029703	1,26732673267327	-4,10891089108911
54753	2874	2151	1667	5670,92895507813	8,17821782178218	1,01980198019802	-3,77227722772277
54913	2856	2171	1671	5675,81176757813	8	1,21782178217822	-3,73267326732673
55073	2862	2168	1674	5680,69458007813	8,05940594059406	1,18811881188119	-3,7029702970297
55233	2857	2145	1686	5685,57739257813	8,00990099009901	0,96039603960396	-3,58415841584158
55393	2876	2140	1643	5690,46020507813	8,1980198019802	0,910891089108911	-4,00990099009901
55553	2870	2164	1666	5695,34301757813	8,13861386138614	1,14851485148515	-3,78217821782178
55713	2873	2162	1663	5700,22583007813	8,16831683168317	1,12871287128713	-3,81188118811881
55873	2879	2155	1672	5705,10864257813	8,22772277227723	1,05940594059406	-3,72277227722772
56033	2855	2157	1632	5709,99145507813	7,99009900990099	1,07920792079208	-4,11881188118812
56193	2856	2159	1669	5714,87426757813	8	1,0990099009901	-3,75247524752475
56353	2874	2163	1675	5719,75708007813	8,17821782178218	1,13861386138614	-3,69306930693069
56513	2864	2160	1658	5724,63989257813	8,07920792079208	1,10891089108911	-3,86138613861386
56673	2875	2151	1661	5729,52270507813	8,18811881188119	1,01980198019802	-3,83168316831683
56833	2848	2164	1654	5734,40551757813	7,92079207920792	1,14851485148515	-3,9009900990099
56993	2872	2156	1664	5739,28833007813	8,15841584158416	1,06930693069307	-3,8019801980198
57153	2869	2159	1629	5744,17114257813	8,12871287128713	1,0990099009901	-4,14851485148515
57313	2878	2165	1656	5749,05395507813	8,21782178217822	1,15841584158416	-3,88118811881188
57473	2852	2137	1662	5753,93676757813	7,96039603960396	0,881188118811881	-3,82178217821782
57633	2862	2138	1656	5758,81958007813	8,05940594059406	0,891089108910891	-3,88118811881188
57793	2844	2152	1658	5763,70239257813	7,88118811881188	1,02970297029703	-3,86138613861386
57953	2861	2152	1667	5768,58520507813	8,04950495049505	1,02970297029703	-3,77227722772277
58113	2859	2177	1652	5773,46801757813	8,02970297029703	1,27722772277228	-3,92079207920792
58273	2873	2167	1667	5778,35083007813	8,16831683168317	1,17821782178218	-3,77227722772277
58433	2879	2137	1670	5783,23364257813	8,22772277227723	0,881188118811881	-3,74257425742574
58593	2861	2136	1670	5788,11645507813	8,04950495049505	0,871287128712871	-3,74257425742574
58753	2887	2147	1655	5792,99926757813	8,30693069306931	0,98019801980198	-3,89108910891089
58913	2861	2166	1667	5797,88208007813	8,04950495049505	1,16831683168317	-3,77227722772277
59073	2835	2166	1659	5802,76489257813	7,79207920792079	1,16831683168317	-3,85148514851485
59233	2859	2151	1678	5807,64770507813	8,02970297029703	1,01980198019802	-3,66336633663366
59393	2861	2139	1620	5812,53051757813	8,04950495049505	0,900990099009901	-4,23762376237624
59553	2863	2163	1657	5817,41333007813	8,06930693069307	1,13861386138614	-3,87128712871287
59713	2860	2146	1680	5822,29614257813	8,03960396039604	0,97029702970297	-3,64356435643564
59873	2880	2134	1675	5827,17895507813	8,23762376237624	0,851485148514851	-3,69306930693069
60033	2859	2143	1679	5832,06176757813	8,02970297029703	0,940594059405941	-3,65346534653465
60193	2867	2149	1667	5836,94458007813	8,10891089108911	1	-3,77227722772277
60353	2850	2160	1662	5841,82739257813	7,94059405940594	1,10891089108911	-3,82178217821782
60513	2856	2155	1658	5846,71020507813	8	1,05940594059406	-3,86138613861386
60673	2890	2154	1678	5851,59301757813	8,33663366336634	1,04950495049505	-3,66336633663366
60833	2852	2159	1644	5856,47583007813	7,96039603960396	1,0990099009901	-4
60993	2850	2130	1654	5861,35864257813	7,94059405940594	0,811881188118812	-3,9009900990099
61153	2859	2133	1680	5866,24145507813	8,02970297029703	0,841584158415842	-3,64356435643564
61313	2867	2187	1646	5871,12426757813	8,10891089108911	1,37623762376238	-3,98019801980198
61473	2848	2150	1662	5876,00708007813	7,92079207920792	1,00990099009901	-3,82178217821782
61633	2840	2157	1647	5880,88989257813	7,84158415841584	1,07920792079208	-3,97029702970297
61793	2848	2152	1666	5885,77270507813	7,92079207920792	1,02970297029703	-3,78217821782178
61953	2861	2146	1659	5890,65551757813	8,04950495049505	0,97029702970297	-3,85148514851485
62113	2861	2149	1645	5895,53833007813	8,04950495049505	1	-3,99009900990099
62273	2860	2164	1679	5900,42114257813	8,03960396039604	1,14851485148515	-3,65346534653465
62433	2870	2153	1662	5905,30395507813	8,13861386138614	1,03960396039604	-3,82178217821782
62593	2864	2147	1665	5910,18676757813	8,07920792079208	0,98019801980198	-3,79207920792079
62753	2859	2160	1650	5915,06958007813	8,02970297029703	1,10891089108911	-3,94059405940594
62913	2879	2146	1670	5919,95239257813	8,22772277227723	0,97029702970297	-3,74257425742574
63073	2868	2158	1649	5924,83520507813	8,11881188118812	1,08910891089109	-3,95049504950495
63233	2860	2147	1636	5929,71801757813	8,03960396039604	0,98019801980198	-4,07920792079208
63393	2856	2167	1666	5934,60083007813	8	1,17821782178218	-3,78217821782178
63553	2867	2159	1676	5939,48364257813	8,10891089108911	1,0990099009901	-3,68316831683168
63713	2882	2147	1653	5944,36645507813	8,25742574257426	0,98019801980198	-3,91089108910891
63873	2848	2164	1644	5949,24926757813	7,92079207920792	1,14851485148515	-4
64033	2888	2152	1671	5954,13208007813	8,31683168316832	1,02970297029703	-3,73267326732673
64193	2870	2160	1678	5959,01489257813	8,13861386138614	1,10891089108911	-3,66336633663366
64353	2870	2137	1650	5963,89770507813	8,13861386138614	0,881188118811881	-3,94059405940594
64513	2882	2157	1672	5968,78051757813	8,25742574257426	1,07920792079208	-3,72277227722772
64673	2857	2157	1660	5973,66333007813	8,00990099009901	1,07920792079208	-3,84158415841584
64833	2846	2149	1660	5978,54614257813	7,9009900990099	1	-3,84158415841584
64993	2881	2140	1652	5983,42895507813	8,24752475247525	0,910891089108911	-3,92079207920792
65153	2862	2163	1673	5988,31176757813	8,05940594059406	1,13861386138614	-3,71287128712871
65313	2848	2153	1667	5993,19458007813	7,92079207920792	1,03960396039604	-3,77227722772277
65473	2865	2149	1641	5998,07739257813	8,08910891089109	1	-4,02970297029703
97	2867	2166	1639	6002,96020507813	8,10891089108911	1,16831683168317	-4,04950495049505
257	2858	2138	1653	6007,84301757813	8,01980198019802	0,891089108910891	-3,91089108910891
417	2884	2157	1666	6012,72583007813	8,27722772277228	1,07920792079208	-3,78217821782178
577	2865	2193	1655	6017,60864257813	8,08910891089109	1,43564356435644	-3,89108910891089
737	2849	2157	1653	6022,49145507813	7,93069306930693	1,07920792079208	-3,91089108910891
897	2874	2152	1651	6027,37426757813	8,17821782178218	1,02970297029703	-3,93069306930693
1057	2865	2163	1653	6032,25708007813	8,08910891089109	1,13861386138614	-3,91089108910891
1217	2873	2161	1661	6037,13989257813	8,16831683168317	1,11881188118812	-3,83168316831683
1377	2858	2151	1661	6042,02270507813	8,01980198019802	1,01980198019802	-3,83168316831683
1537	2867	2139	1673	6046,90551757813	8,10891089108911	0,900990099009901	-3,71287128712871
1697	2870	2139	1653	6051,78833007813	8,13861386138614	0,900990099009901	-3,91089108910891
1857	2848	2151	1648	6056,67114257813	7,92079207920792	1,01980198019802	-3,96039603960396
2017	2851	2153	1668	6061,55395507813	7,95049504950495	1,03960396039604	-3,76237623762376
2177	2880	2157	1675	6066,43676757813	8,23762376237624	1,07920792079208	-3,69306930693069
2337	2850	2146	1677	6071,31958007813	7,94059405940594	0,97029702970297	-3,67326732673267
2497	2880	2137	1671	6076,20239257813	8,23762376237624	0,881188118811881	-3,73267326732673
2657	2850	2149	1659	6081,08520507813	7,94059405940594	1	-3,85148514851485
2817	2887	2168	1663	6085,96801757813	8,30693069306931	1,18811881188119	-3,81188118811881
2977	2875	2162	1654	6090,85083007813	8,18811881188119	1,12871287128713	-3,9009900990099
3137	2856	2161	1652	6095,73364257813	8	1,11881188118812	-3,92079207920792
3297	2883	2140	1648	6100,61645507813	8,26732673267327	0,910891089108911	-3,96039603960396
3457	2872	2170	1659	6105,49926757813	8,15841584158416	1,20792079207921	-3,85148514851485
3617	2858	2152	1656	6110,38208007813	8,01980198019802	1,02970297029703	-3,88118811881188
3777	2860	2128	1671	6115,26489257813	8,03960396039604	0,792079207920792	-3,73267326732673
3937	2860	2147	1643	6120,14770507813	8,03960396039604	0,98019801980198	-4,00990099009901
4097	2858	2181	1682	6125,03051757813	8,01980198019802	1,31683168316832	-3,62376237623762
4257	2839	2179	1628	6129,91333007813	7,83168316831683	1,2970297029703	-4,15841584158416
4417	2849	2247	1578	6134,79614257813	7,93069306930693	1,97029702970297	-4,65346534653465
4577	2909	2222	1661	6139,67895507813	8,52475247524752	1,72277227722772	-3,83168316831683
4737	2835	2170	1541	6144,56176757813	7,79207920792079	1,20792079207921	-5,01980198019802
4897	2904	2157	1628	6149,44458007813	8,47524752475248	1,07920792079208	-4,15841584158416
5057	2862	2146	1683	6154,32739257813	8,05940594059406	0,97029702970297	-3,61386138613861
5217	2849	2137	1660	6159,21020507813	7,93069306930693	0,881188118811881	-3,84158415841584
5377	2843	2139	1661	6164,09301757813	7,87128712871287	0,900990099009901	-3,83168316831683
5537	2843	2127	1680	6168,97583007813	7,87128712871287	0,782178217821782	-3,64356435643564
5697	2847	2095	1666	6173,85864257813	7,91089108910891	0,465346534653465	-3,78217821782178
5857	2928	2089	1709	6178,74145507813	8,71287128712871	0,405940594059406	-3,35643564356436
6017	2856	2098	1686	6183,62426757813	8	0,495049504950495	-3,58415841584158
6177	2870	2087	1676	6188,50708007813	8,13861386138614	0,386138613861386	-3,68316831683168
6337	2864	2146	1694	6193,38989257813	8,07920792079208	0,97029702970297	-3,50495049504951
6497	2887	2171	1697	6198,27270507813	8,30693069306931	1,21782178217822	-3,47524752475248
6657	2852	2171	1685	6203,15551757813	7,96039603960396	1,21782178217822	-3,59405940594059
6817	2864	2164	1641	6208,03833007813	8,07920792079208	1,14851485148515	-4,02970297029703
6977	2860	2137	1614	6212,92114257813	8,03960396039604	0,881188118811881	-4,2970297029703
7137	2877	2171	1681	6217,80395507813	8,20792079207921	1,21782178217822	-3,63366336633663
7297	2845	2172	1641	6222,68676757813	7,89108910891089	1,22772277227723	-4,02970297029703
7457	2860	2158	1681	6227,56958007813	8,03960396039604	1,08910891089109	-3,63366336633663
7617	2890	2163	1646	6232,45239257813	8,33663366336634	1,13861386138614	-3,98019801980198
7777	2837	2141	1665	6237,33520507813	7,81188118811881	0,920792079207921	-3,79207920792079
7937	2862	2144	1662	6242,21801757813	8,05940594059406	0,95049504950495	-3,82178217821782
8097	2857	2159	1652	6247,10083007813	8,00990099009901	1,0990099009901	-3,92079207920792
8257	2865	2159	1692	6251,98364257813	8,08910891089109	1,0990099009901	-3,52475247524752
8417	2875	2156	1637	6256,86645507813	8,18811881188119	1,06930693069307	-4,06930693069307
8577	2849	2140	1655	6261,74926757813	7,93069306930693	0,910891089108911	-3,89108910891089
8737	2858	2142	1661	6266,63208007813	8,01980198019802	0,930693069306931	-3,83168316831683
8897	2857	2171	1644	6271,51489257813	8,00990099009901	1,21782178217822	-4
9057	2858	2181	1664	6276,39770507813	8,01980198019802	1,31683168316832	-3,8019801980198
9217	2870	2157	1674	6281,28051757813	8,13861386138614	1,07920792079208	-3,7029702970297
9377	2862	2161	1639	6286,16333007813	8,05940594059406	1,11881188118812	-4,04950495049505
9537	2871	2156	1663	6291,04614257813	8,14851485148515	1,06930693069307	-3,81188118811881
9697	2859	2153	1676	6295,92895507813	8,02970297029703	1,03960396039604	-3,68316831683168
9857	2864	2156	1652	6300,81176757813	8,07920792079208	1,06930693069307	-3,92079207920792
10017	2867	2142	1662	6305,69458007813	8,10891089108911	0,930693069306931	-3,82178217821782
10177	2873	2149	1671	6310,57739257813	8,16831683168317	1	-3,73267326732673
10337	2861	2159	1647	6315,46020507813	8,04950495049505	1,0990099009901	-3,97029702970297
10497	2896	2182	1659	6320,34301757813	8,3960396039604	1,32673267326733	-3,85148514851485
10657	2872	2163	1661	6325,22583007813	8,15841584158416	1,13861386138614	-3,83168316831683
10817	2859	2151	1647	6330,10864257813	8,02970297029703	1,01980198019802	-3,97029702970297
10977	2870	2150	1649	6334,99145507813	8,13861386138614	1,00990099009901	-3,95049504950495
11137	2864	2159	1663	6339,87426757813	8,07920792079208	1,0990099009901	-3,81188118811881
11297	2880	2140	1652	6344,75708007813	8,23762376237624	0,910891089108911	-3,92079207920792
11457	2851	2161	1683	6349,63989257813	7,95049504950495	1,11881188118812	-3,61386138613861
11617	2881	2157	1652	6354,52270507813	8,24752475247525	1,07920792079208	-3,92079207920792
11777	2882	2148	1659	6359,40551757813	8,25742574257426	0,99009900990099	-3,85148514851485
11937	2866	2163	1644	6364,28833007813	8,0990099009901	1,13861386138614	-4
12097	2870	2169	1656	6369,17114257813	8,13861386138614	1,1980198019802	-3,88118811881188
12257	2865	2177	1636	6374,05395507813	8,08910891089109	1,27722772277228	-4,07920792079208
12417	2869	2163	1641	6378,93676757813	8,12871287128713	1,13861386138614	-4,02970297029703
12577	2854	2130	1684	6383,81958007813	7,98019801980198	0,811881188118812	-3,6039603960396
12737	2876	2147	1673	6388,70239257813	8,1980198019802	0,98019801980198	-3,71287128712871
12897	2838	2149	1673	6393,58520507813	7,82178217821782	1	-3,71287128712871
13057	2866	2168	1667	6398,46801757813	8,0990099009901	1,18811881188119	-3,77227722772277
13217	2853	2149	1670	6403,35083007813	7,97029702970297	1	-3,74257425742574
13377	2862	2151	1669	6408,23364257813	8,05940594059406	1,01980198019802	-3,75247524752475
13537	2867	2149	1640	6413,11645507813	8,10891089108911	1	-4,03960396039604
13697	2880	2144	1682	6417,99926757813	8,23762376237624	0,95049504950495	-3,62376237623762
13857	2856	2152	1658	6422,88208007813	8	1,02970297029703	-3,86138613861386
14017	2874	2155	1688	6427,76489257813	8,17821782178218	1,05940594059406	-3,56435643564356
14177	2868	2197	1644	6432,64770507813	8,11881188118812	1,47524752475248	-4
14337	2866	2167	1662	6437,53051757813	8,0990099009901	1,17821782178218	-3,82178217821782
14497	2871	2148	1657	6442,41333007813	8,14851485148515	0,99009900990099	-3,87128712871287
14657	2885	2154	1649	6447,29614257813	8,28712871287129	1,04950495049505	-3,95049504950495
14817	2868	2139	1672	6452,17895507813	8,11881188118812	0,900990099009901	-3,72277227722772
14977	2865	2151	1643	6457,06176757813	8,08910891089109	1,01980198019802	-4,00990099009901
15137	2864	2145	1642	6461,94458007813	8,07920792079208	0,96039603960396	-4,01980198019802
15297	2875	2142	1640	6466,82739257813	8,18811881188119	0,930693069306931	-4,03960396039604
15457	2897	2159	1650	6471,71020507813	8,40594059405941	1,0990099009901	-3,94059405940594
15617	2856	2171	1652	6476,59301757813	8	1,21782178217822	-3,92079207920792
15777	2884	2139	1660	6481,47583007813	8,27722772277228	0,900990099009901	-3,84158415841584
15937	2861	2167	1641	6486,35864257813	8,04950495049505	1,17821782178218	-4,02970297029703
16097	2869	2163	1657	6491,24145507813	8,12871287128713	1,13861386138614	-3,87128712871287
16257	2857	2166	1671	6496,12426757813	8,00990099009901	1,16831683168317	-3,73267326732673
16417	2867	2152	1669	6501,00708007813	8,10891089108911	1,02970297029703	-3,75247524752475
16577	2848	2140	1687	6505,88989257813	7,92079207920792	0,910891089108911	-3,57425742574257
16737	2857	2151	1654	6510,77270507813	8,00990099009901	1,01980198019802	-3,9009900990099
16897	2852	2157	1685	6515,65551757813	7,96039603960396	1,07920792079208	-3,59405940594059
17057	2855	2142	1683	6520,53833007813	7,99009900990099	0,930693069306931	-3,61386138613861
17217	2874	2138	1643	6525,42114257813	8,17821782178218	0,891089108910891	-4,00990099009901
17377	2866	2175	1642	6530,30395507813	8,0990099009901	1,25742574257426	-4,01980198019802
17537	2829	2136	1663	6535,18676757813	7,73267326732673	0,871287128712871	-3,81188118811881
17697	2880	2158	1651	6540,06958007813	8,23762376237624	1,08910891089109	-3,93069306930693
17857	2869	2195	1654	6544,95239257813	8,12871287128713	1,45544554455446	-3,9009900990099
18017	2876	2153	1643	6549,83520507813	8,1980198019802	1,03960396039604	-4,00990099009901
18177	2839	2162	1609	6554,71801757813	7,83168316831683	1,12871287128713	-4,34653465346535
18337	2868	2145	1584	6559,60083007813	8,11881188118812	0,96039603960396	-4,59405940594059
18497	2866	2153	1589	6564,48364257813	8,0990099009901	1,03960396039604	-4,54455445544555
18657	2896	2177	1730	6569,36645507813	8,3960396039604	1,27722772277228	-3,14851485148515
18817	2850	2151	1638	6574,24926757813	7,94059405940594	1,01980198019802	-4,05940594059406
18977	2858	2195	1719	6579,13208007813	8,01980198019802	1,45544554455446	-3,25742574257426
19137	2825	2172	1619	6584,01489257813	7,69306930693069	1,22772277227723	-4,24752475247525
19297	2837	2185	1635	6588,89770507813	7,81188118811881	1,35643564356436	-4,08910891089109
19457	2880	2150	1676	6593,78051757813	8,23762376237624	1,00990099009901	-3,68316831683168
19617	2861	2168	1656	6598,66333007813	8,04950495049505	1,18811881188119	-3,88118811881188
19777	2864	2143	1651	6603,54614257813	8,07920792079208	0,940594059405941	-3,93069306930693
19937	2858	2170	1663	6608,42895507813	8,01980198019802	1,20792079207921	-3,81188118811881
20097	2873	2157	1653	6613,31176757813	8,16831683168317	1,07920792079208	-3,91089108910891
20257	2875	2137	1635	6618,19458007813	8,18811881188119	0,881188118811881	-4,08910891089109
20417	2856	2143	1620	6623,07739257813	8	0,940594059405941	-4,23762376237624
20577	2842	2161	1660	6627,96020507813	7,86138613861386	1,11881188118812	-3,84158415841584
20737	2846	2156	1656	6632,84301757813	7,9009900990099	1,06930693069307	-3,88118811881188
20897	2883	2145	1655	6637,72583007813	8,26732673267327	0,96039603960396	-3,89108910891089
21057	2866	2156	1679	6642,60864257813	8,0990099009901	1,06930693069307	-3,65346534653465
21217	2876	2151	1667	6647,49145507813	8,1980198019802	1,01980198019802	-3,77227722772277
21377	2861	2165	1634	6652,37426757813	8,04950495049505	1,15841584158416	-4,0990099009901
21537	2862	2123	1811	6657,25708007813	8,05940594059406	0,742574257425743	-2,34653465346535
21697	2856	2187	1624	6662,13989257813	8	1,37623762376238	-4,1980198019802
21857	2844	2173	1654	6667,02270507813	7,88118811881188	1,23762376237624	-3,9009900990099
22017	2858	2165	1627	6671,90551757813	8,01980198019802	1,15841584158416	-4,16831683168317
22177	2851	2165	1606	6676,78833007813	7,95049504950495	1,15841584158416	-4,37623762376238
22337	2868	2195	1701	6681,67114257813	8,11881188118812	1,45544554455446	-3,43564356435644
22497	2809	2231	1770	6686,55395507813	7,53465346534654	1,81188118811881	-2,75247524752475
22657	2865	2185	1685	6691,43676757813	8,08910891089109	1,35643564356436	-3,59405940594059
22817	2894	2116	1638	6696,31958007813	8,37623762376238	0,673267326732673	-4,05940594059406
22977	2883	2107	1643	6701,20239257813	8,26732673267327	0,584158415841584	-4,00990099009901
23137	2890	2106	1573	6706,08520507813	8,33663366336634	0,574257425742574	-4,7029702970297
23297	2879	2164	1594	6710,96801757813	8,22772277227723	1,14851485148515	-4,4950495049505
23457	2855	2147	1613	6715,85083007813	7,99009900990099	0,98019801980198	-4,30693069306931
23617	2888	2186	1671	6720,73364257813	8,31683168316832	1,36633663366337	-3,73267326732673
23777	2854	2200	1642	6725,61645507813	7,98019801980198	1,50495049504951	-4,01980198019802
23937	2860	2145	1625	6730,49926757813	8,03960396039604	0,96039603960396	-4,18811881188119
24097	2880	2143	1656	6735,38208007813	8,23762376237624	0,940594059405941	-3,88118811881188
24257	2878	2176	1640	6740,26489257813	8,21782178217822	1,26732673267327	-4,03960396039604
24417	2848	2144	1569	6745,14770507813	7,92079207920792	0,95049504950495	-4,74257425742574
24577	2859	2107	1565	6750,03051757813	8,02970297029703	0,584158415841584	-4,78217821782178
24737	2856	2111	1629	6754,91333007813	8	0,623762376237624	-4,14851485148515
24897	2902	2110	1648	6759,79614257813	8,45544554455446	0,613861386138614	-3,96039603960396
25057	2874	2157	1639	6764,67895507813	8,17821782178218	1,07920792079208	-4,04950495049505
25217	2870	2142	1697	6769,56176757813	8,13861386138614	0,930693069306931	-3,47524752475248
25377	2926	2108	1697	6774,44458007813	8,69306930693069	0,594059405940594	-3,47524752475248
25537	2906	2114	1697	6779,32739257813	8,4950495049505	0,653465346534653	-3,47524752475248
25697	2888	2114	1634	6784,21020507813	8,31683168316832	0,653465346534653	-4,0990099009901
25857	2926	2145	1583	6789,09301757813	8,69306930693069	0,96039603960396	-4,6039603960396
26017	2924	2109	1558	6793,97583007813	8,67326732673267	0,603960396039604	-4,85148514851485
26177	2953	2143	1571	6798,85864257813	8,96039603960396	0,940594059405941	-4,72277227722772
26337	3053	2140	1601	6803,74145507813	9,95049504950495	0,910891089108911	-4,42574257425743
26497	3069	2134	1652	6808,62426757813	10,1089108910891	0,851485148514851	-3,92079207920792
26657	3000	2078	1690	6813,50708007813	9,42574257425743	0,297029702970297	-3,54455445544554
26817	2963	2085	1666	6818,38989257813	9,05940594059406	0,366336633663366	-3,78217821782178
26977	2941	2123	1678	6823,27270507813	8,84158415841584	0,742574257425743	-3,66336633663366
27137	2954	2088	1678	6828,15551757813	8,97029702970297	0,396039603960396	-3,66336633663366
27297	2945	2047	1634	6833,03833007813	8,88118811881188	-0,0099009900990099	-4,0990099009901
27457	2940	2076	1626	6837,92114257813	8,83168316831683	0,277227722772277	-4,17821782178218
27617	2912	2041	1606	6842,80395507813	8,55445544554455	-0,0693069306930693	-4,37623762376238
27777	2917	2020	1596	6847,68676757813	8,6039603960396	-0,277227722772277	-4,47524752475248
27937	2876	2063	1597	6852,56958007813	8,1980198019802	0,148514851485149	-4,46534653465347
28097	2876	2122	1617	6857,45239257813	8,1980198019802	0,732673267326733	-4,26732673267327
28257	2847	2080	1641	6862,33520507813	7,91089108910891	0,316831683168317	-4,02970297029703
28417	2867	2040	1634	6867,21801757813	8,10891089108911	-0,0792079207920792	-4,0990099009901
28577	2894	2046	1623	6872,10083007813	8,37623762376238	-0,0198019801980198	-4,20792079207921
28737	2874	2053	1627	6876,98364257813	8,17821782178218	0,0495049504950495	-4,16831683168317
28897	2850	2027	1625	6881,86645507813	7,94059405940594	-0,207920792079208	-4,18811881188119
29057	2836	2003	1636	6886,74926757813	7,8019801980198	-0,445544554455446	-4,07920792079208
29217	2856	1969	1662	6891,63208007813	8	-0,782178217821782	-3,82178217821782
29377	2842	1985	1598	6896,51489257813	7,86138613861386	-0,623762376237624	-4,45544554455446
29537	2851	1991	1584	6901,39770507813	7,95049504950495	-0,564356435643564	-4,59405940594059
29697	2877	1959	1618	6906,28051757813	8,20792079207921	-0,881188118811881	-4,25742574257426
29857	2886	1929	1653	6911,16333007813	8,2970297029703	-1,17821782178218	-3,91089108910891
30017	2866	1914	1666	6916,04614257813	8,0990099009901	-1,32673267326733	-3,78217821782178
30177	2844	1887	1647	6920,92895507813	7,88118811881188	-1,59405940594059	-3,97029702970297
30337	2836	1902	1658	6925,81176757813	7,8019801980198	-1,44554455445545	-3,86138613861386
30497	2833	1878	1682	6930,69458007813	7,77227722772277	-1,68316831683168	-3,62376237623762
30657	2786	1870	1645	6935,57739257813	7,30693069306931	-1,76237623762376	-3,99009900990099
30817	2784	1867	1610	6940,46020507813	7,28712871287129	-1,79207920792079	-4,33663366336634
30977	2768	1855	1638	6945,34301757813	7,12871287128713	-1,91089108910891	-4,05940594059406
31137	2787	1868	1687	6950,22583007813	7,31683168316832	-1,78217821782178	-3,57425742574257
31297	2764	1823	1648	6955,10864257813	7,08910891089109	-2,22772277227723	-3,96039603960396
31457	2766	1831	1673	6959,99145507813	7,10891089108911	-2,14851485148515	-3,71287128712871
31617	2730	1796	1623	6964,87426757813	6,75247524752475	-2,4950495049505	-4,20792079207921
31777	2773	1753	1641	6969,75708007813	7,17821782178218	-2,92079207920792	-4,02970297029703
31937	2741	1806	1635	6974,63989257813	6,86138613861386	-2,3960396039604	-4,08910891089109
32097	2664	1727	1643	6979,52270507813	6,0990099009901	-3,17821782178218	-4,00990099009901
32257	2723	1732	1668	6984,40551757813	6,68316831683168	-3,12871287128713	-3,76237623762376
32417	2653	1735	1658	6989,28833007813	5,99009900990099	-3,0990099009901	-3,86138613861386
32577	2677	1728	1680	6994,17114257813	6,22772277227723	-3,16831683168317	-3,64356435643564
32737	2643	1686	1658	6999,05395507813	5,89108910891089	-3,58415841584158	-3,86138613861386
32897	2714	1706	1686	7003,93676757813	6,59405940594059	-3,38613861386139	-3,58415841584158
33057	2668	1610	1650	7008,81958007813	6,13861386138614	-4,33663366336634	-3,94059405940594
33217	2700	1587	1648	7013,70239257813	6,45544554455446	-4,56435643564356	-3,96039603960396
33377	2704	1596	1650	7018,58520507813	6,4950495049505	-4,47524752475248	-3,94059405940594
33537	2686	1554	1669	7023,46801757813	6,31683168316832	-4,89108910891089	-3,75247524752475
33697	2592	1502	1620	7028,35083007813	5,38613861386139	-5,40594059405941	-4,23762376237624
33857	2667	1546	1663	7033,23364257813	6,12871287128713	-4,97029702970297	-3,81188118811881
34017	2640	1513	1680	7038,11645507813	5,86138613861386	-5,2970297029703	-3,64356435643564
34177	2560	1441	1660	7042,99926757813	5,06930693069307	-6,00990099009901	-3,84158415841584
34337	2732	1535	1645	7047,88208007813	6,77227722772277	-5,07920792079208	-3,99009900990099
34497	2525	1455	1614	7052,76489257813	4,72277227722772	-5,87128712871287	-4,2970297029703
34657	2626	1462	1663	7057,64770507813	5,72277227722772	-5,8019801980198	-3,81188118811881
34817	2546	1439	1664	7062,53051757813	4,93069306930693	-6,02970297029703	-3,8019801980198
34977	2506	1434	1564	7067,41333007813	4,53465346534654	-6,07920792079208	-4,79207920792079
35137	2505	1377	1605	7072,29614257813	4,52475247524753	-6,64356435643564	-4,38613861386139
35297	2488	1402	1606	7077,17895507813	4,35643564356436	-6,3960396039604	-4,37623762376238
35457	2415	1332	1638	7082,06176757813	3,63366336633663	-7,08910891089109	-4,05940594059406
35617	2504	1394	1606	7086,94458007813	4,51485148514852	-6,47524752475248	-4,37623762376238
35777	2401	1363	1610	7091,82739257813	3,4950495049505	-6,78217821782178	-4,33663366336634
35937	2406	1368	1658	7096,71020507813	3,54455445544554	-6,73267326732673	-3,86138613861386
36097	2358	1346	1640	7101,59301757813	3,06930693069307	-6,95049504950495	-4,03960396039604
36257	2373	1367	1619	7106,47583007813	3,21782178217822	-6,74257425742574	-4,24752475247525
36417	2374	1389	1581	7111,35864257813	3,22772277227723	-6,52475247524753	-4,62376237623762
36577	2381	1362	1595	7116,24145507813	3,2970297029703	-6,79207920792079	-4,48514851485149
36737	2317	1320	1582	7121,12426757813	2,66336633663366	-7,20792079207921	-4,61386138613861
36897	2356	1312	1619	7126,00708007813	3,04950495049505	-7,28712871287129	-4,24752475247525
37057	2397	1346	1555	7130,88989257813	3,45544554455446	-6,95049504950495	-4,88118811881188
37217	2344	1279	1561	7135,77270507813	2,93069306930693	-7,61386138613861	-4,82178217821782
37377	2313	1243	1618	7140,65551757813	2,62376237623762	-7,97029702970297	-4,25742574257426
37537	2285	1235	1635	7145,53833007813	2,34653465346535	-8,04950495049505	-4,08910891089109
37697	2267	1225	1647	7150,42114257813	2,16831683168317	-8,14851485148515	-3,97029702970297
37857	2259	1215	1636	7155,30395507813	2,08910891089109	-8,24752475247525	-4,07920792079208
38017	2248	1249	1615	7160,18676757813	1,98019801980198	-7,91089108910891	-4,28712871287129
38177	2200	1232	1599	7165,06958007813	1,50495049504951	-8,07920792079208	-4,44554455445545
38337	2217	1191	1595	7169,95239257813	1,67326732673267	-8,48514851485148	-4,48514851485149
38497	2200	1209	1583	7174,83520507813	1,50495049504951	-8,30693069306931	-4,6039603960396
38657	2194	1239	1555	7179,71801757813	1,44554455445545	-8,00990099009901	-4,88118811881188
38817	2169	1271	1558	7184,60083007813	1,1980198019802	-7,69306930693069	-4,85148514851485
38977	2169	1271	1541	7189,48364257813	1,1980198019802	-7,69306930693069	-5,01980198019802
39137	2168	1268	1550	7194,36645507813	1,18811881188119	-7,72277227722772	-4,93069306930693
39297	2140	1274	1563	7199,24926757813	0,910891089108911	-7,66336633663366	-4,8019801980198
39457	2122	1272	1609	7204,13208007813	0,732673267326733	-7,68316831683168	-4,34653465346535
39617	2130	1293	1627	7209,01489257813	0,811881188118812	-7,47524752475248	-4,16831683168317
39777	2071	1349	1710	7213,89770507813	0,227722772277228	-6,92079207920792	-3,34653465346535
39937	2088	1294	1796	7218,78051757813	0,396039603960396	-7,46534653465347	-2,4950495049505
40097	2140	1204	1531	7223,66333007813	0,910891089108911	-8,35643564356436	-5,11881188118812
40257	2108	1240	1545	7228,54614257813	0,594059405940594	-8	-4,98019801980198
40417	2118	1251	1650	7233,42895507813	0,693069306930693	-7,89108910891089	-3,94059405940594
40577	2127	1212	1658	7238,31176757813	0,782178217821782	-8,27722772277228	-3,86138613861386
40737	2108	1174	1633	7243,19458007813	0,594059405940594	-8,65346534653465	-4,10891089108911
40897	2109	1171	1571	7248,07739257813	0,603960396039604	-8,68316831683168	-4,72277227722772
41057	2088	1200	1576	7252,96020507813	0,396039603960396	-8,3960396039604	-4,67326732673267
41217	2080	1189	1599	7257,84301757813	0,316831683168317	-8,5049504950495	-4,44554455445545
41377	2075	1178	1584	7262,72583007813	0,267326732673267	-8,61386138613861	-4,59405940594059
41537	2090	1211	1584	7267,60864257813	0,415841584158416	-8,28712871287129	-4,59405940594059
41697	2047	1205	1578	7272,49145507813	-0,0099009900990099	-8,34653465346535	-4,65346534653465
41857	2024	1201	1588	7277,37426757813	-0,237623762376238	-8,38613861386139	-4,55445544554455
42017	2024	1191	1574	7282,25708007813	-0,237623762376238	-8,48514851485148	-4,69306930693069
42177	1998	1184	1590	7287,13989257813	-0,495049504950495	-8,55445544554455	-4,53465346534654
42337	2012	1191	1553	7292,02270507813	-0,356435643564356	-8,48514851485148	-4,9009900990099
42497	2001	1197	1551	7296,90551757813	-0,465346534653465	-8,42574257425743	-4,92079207920792
42657	1994	1231	1540	7301,78833007813	-0,534653465346535	-8,08910891089109	-5,02970297029703
42817	2008	1183	1520	7306,67114257813	-0,396039603960396	-8,56435643564356	-5,22772277227723
42977	1984	1180	1538	7311,55395507813	-0,633663366336634	-8,59405940594059	-5,04950495049505
43137	1966	1161	1542	7316,43676757813	-0,811881188118812	-8,78217821782178	-5,00990099009901
43297	1970	1154	1540	7321,31958007813	-0,772277227722772	-8,85148514851485	-5,02970297029703
43457	1943	1201	1539	7326,20239257813	-1,03960396039604	-8,38613861386139	-5,03960396039604
43617	1936	1135	1551	7331,08520507813	-1,10891089108911	-9,03960396039604	-4,92079207920792
43777	1928	1132	1542	7335,96801757813	-1,18811881188119	-9,06930693069307	-5,00990099009901
43937	1915	1130	1556	7340,85083007813	-1,31683168316832	-9,08910891089109	-4,87128712871287
44097	1922	1139	1543	7345,73364257813	-1,24752475247525	-9	-5
44257	1918	1143	1574	7350,61645507813	-1,28712871287129	-8,96039603960396	-4,69306930693069
44417	1909	1130	1578	7355,49926757813	-1,37623762376238	-9,08910891089109	-4,65346534653465
44577	1914	1171	1535	7360,38208007813	-1,32673267326733	-8,68316831683168	-5,07920792079208
44737	1879	1208	1579	7365,26489257813	-1,67326732673267	-8,31683168316832	-4,64356435643564
44897	1874	1211	1568	7370,14770507813	-1,72277227722772	-8,28712871287129	-4,75247524752475
45057	1887	1191	1548	7375,03051757813	-1,59405940594059	-8,48514851485148	-4,95049504950495
45217	1880	1219	1529	7379,91333007813	-1,66336633663366	-8,20792079207921	-5,13861386138614
45377	1898	1212	1524	7384,79614257813	-1,48514851485149	-8,27722772277228	-5,18811881188119
45537	1866	1215	1523	7389,67895507813	-1,8019801980198	-8,24752475247525	-5,1980198019802
45697	1871	1206	1508	7394,56176757813	-1,75247524752475	-8,33663366336634	-5,34653465346535
45857	1859	1192	1496	7399,44458007813	-1,87128712871287	-8,47524752475248	-5,46534653465347
46017	1820	1190	1492	7404,32739257813	-2,25742574257426	-8,4950495049505	-5,50495049504951
46177	1829	1211	1506	7409,21020507813	-2,16831683168317	-8,28712871287129	-5,36633663366337
46337	1838	1193	1491	7414,09301757813	-2,07920792079208	-8,46534653465346	-5,51485148514852
46497	1855	1182	1497	7418,97583007813	-1,91089108910891	-8,57425742574257	-5,45544554455446
46657	1802	1179	1492	7423,85864257813	-2,43564356435644	-8,6039603960396	-5,50495049504951
46817	1812	1132	1495	7428,74145507813	-2,33663366336634	-9,06930693069307	-5,47524752475248
46977	1791	1147	1493	7433,62426757813	-2,54455445544554	-8,92079207920792	-5,4950495049505
47137	1811	1165	1476	7438,50708007813	-2,34653465346535	-8,74257425742574	-5,66336633663366
47297	1797	1161	1488	7443,38989257813	-2,48514851485149	-8,78217821782178	-5,54455445544555
47457	1780	1192	1511	7448,27270507813	-2,65346534653465	-8,47524752475248	-5,31683168316832
47617	1807	1225	1529	7453,15551757813	-2,38613861386139	-8,14851485148515	-5,13861386138614
47777	1797	1229	1507	7458,03833007813	-2,48514851485149	-8,10891089108911	-5,35643564356436
47937	1738	737	1655	7462,92114257813	-3,06930693069307	-12,980198019802	-3,89108910891089
48097	1813	1310	1538	7467,80395507813	-2,32673267326733	-7,30693069306931	-5,04950495049505
48257	1783	1234	1466	7472,68676757813	-2,62376237623762	-8,05940594059406	-5,76237623762376
48417	1754	1203	1530	7477,56958007813	-2,91089108910891	-8,36633663366337	-5,12871287128713
48577	1776	1177	1494	7482,45239257813	-2,69306930693069	-8,62376237623762	-5,48514851485149
48737	1781	1197	1507	7487,33520507813	-2,64356435643564	-8,42574257425743	-5,35643564356436
48897	1788	1207	1569	7492,21801757813	-2,57425742574257	-8,32673267326733	-4,74257425742574
49057	1791	1178	1540	7497,10083007813	-2,54455445544554	-8,61386138613861	-5,02970297029703
49217	1797	1208	1517	7501,98364257813	-2,48514851485149	-8,31683168316832	-5,25742574257426
49377	1748	1162	1521	7506,86645507813	-2,97029702970297	-8,77227722772277	-5,21782178217822
49537	1808	1223	1544	7511,74926757813	-2,37623762376238	-8,16831683168317	-4,99009900990099
49697	1767	1183	1508	7516,63208007813	-2,78217821782178	-8,56435643564356	-5,34653465346535
49857	1827	1188	1538	7521,51489257813	-2,18811881188119	-8,51485148514852	-5,04950495049505
50017	1789	1173	1542	7526,39770507813	-2,56435643564356	-8,66336633663366	-5,00990099009901
50177	1808	1188	1571	7531,28051757813	-2,37623762376238	-8,51485148514852	-4,72277227722772
50337	1799	1183	1558	7536,16333007813	-2,46534653465347	-8,56435643564356	-4,85148514851485
50497	1810	1200	1560	7541,04614257813	-2,35643564356436	-8,3960396039604	-4,83168316831683
50657	1776	1164	1580	7545,92895507813	-2,69306930693069	-8,75247524752475	-4,63366336633663
50817	1788	1176	1583	7550,81176757813	-2,57425742574257	-8,63366336633663	-4,6039603960396
50977	1814	1175	1578	7555,69458007813	-2,31683168316832	-8,64356435643564	-4,65346534653465
51137	1828	1152	1575	7560,57739257813	-2,17821782178218	-8,87128712871287	-4,68316831683168
51297	1813	1144	1614	7565,46020507813	-2,32673267326733	-8,95049504950495	-4,2970297029703
51457	1807	1156	1609	7570,34301757813	-2,38613861386139	-8,83168316831683	-4,34653465346535
51617	1824	1158	1628	7575,22583007813	-2,21782178217822	-8,81188118811881	-4,15841584158416
51777	1815	1166	1588	7580,10864257813	-2,30693069306931	-8,73267326732673	-4,55445544554455
51937	1804	1194	1591	7584,99145507813	-2,41584158415842	-8,45544554455446	-4,52475247524753
52097	1814	1168	1578	7589,87426757813	-2,31683168316832	-8,71287128712871	-4,65346534653465
52257	1814	1177	1565	7594,75708007813	-2,31683168316832	-8,62376237623762	-4,78217821782178
52417	1811	1191	1611	7599,63989257813	-2,34653465346535	-8,48514851485148	-4,32673267326733
52577	1821	1179	1588	7604,52270507813	-2,24752475247525	-8,6039603960396	-4,55445544554455
52737	1822	1181	1582	7609,40551757813	-2,23762376237624	-8,58415841584158	-4,61386138613861
52897	1765	1171	1602	7614,28833007813	-2,8019801980198	-8,68316831683168	-4,41584158415842
53057	1827	1174	1605	7619,17114257813	-2,18811881188119	-8,65346534653465	-4,38613861386139
53217	1848	1191	1617	7624,05395507813	-1,98019801980198	-8,48514851485148	-4,26732673267327
53377	1797	1191	1596	7628,93676757813	-2,48514851485149	-8,48514851485148	-4,47524752475248
53537	1844	1191	1591	7633,81958007813	-2,01980198019802	-8,48514851485148	-4,52475247524753
53697	1826	1183	1617	7638,70239257813	-2,1980198019802	-8,56435643564356	-4,26732673267327
53857	1821	1043	1596	7643,58520507813	-2,24752475247525	-9,95049504950495	-4,47524752475248
54017	1822	1179	1583	7648,46801757813	-2,23762376237624	-8,6039603960396	-4,6039603960396
54177	1847	1169	1592	7653,35083007813	-1,99009900990099	-8,7029702970297	-4,51485148514852
54337	1876	1152	1599	7658,23364257813	-1,7029702970297	-8,87128712871287	-4,44554455445545
54497	1857	1166	1591	7663,11645507813	-1,89108910891089	-8,73267326732673	-4,52475247524753
54657	1885	1147	1636	7667,99926757813	-1,61386138613861	-8,92079207920792	-4,07920792079208
54817	1835	1185	1585	7672,88208007813	-2,10891089108911	-8,54455445544554	-4,58415841584158
54977	1836	1174	1614	7677,76489257813	-2,0990099009901	-8,65346534653465	-4,2970297029703
55137	1844	1153	1622	7682,64770507813	-2,01980198019802	-8,86138613861386	-4,21782178217822
55297	1862	1193	1591	7687,53051757813	-1,84158415841584	-8,46534653465346	-4,52475247524753
55457	1826	1173	1589	7692,41333007813	-2,1980198019802	-8,66336633663366	-4,54455445544555
55617	1840	1180	1604	7697,29614257813	-2,05940594059406	-8,59405940594059	-4,3960396039604
55777	1862	1160	1591	7702,17895507813	-1,84158415841584	-8,79207920792079	-4,52475247524753
55937	1886	1159	1618	7707,06176757813	-1,6039603960396	-8,8019801980198	-4,25742574257426
56097	1854	1164	1574	7711,94458007813	-1,92079207920792	-8,75247524752475	-4,69306930693069
56257	1866	1174	1605	7716,82739257813	-1,8019801980198	-8,65346534653465	-4,38613861386139
56417	1873	1150	1605	7721,71020507813	-1,73267326732673	-8,89108910891089	-4,38613861386139
56577	1856	1175	1592	7726,59301757813	-1,9009900990099	-8,64356435643564	-4,51485148514852
56737	1866	1187	1521	7731,47583007813	-1,8019801980198	-8,52475247524752	-5,21782178217822
56897	1846	1176	1641	7736,35864257813	-2	-8,63366336633663	-4,02970297029703
57057	1866	1202	1583	7741,24145507813	-1,8019801980198	-8,37623762376238	-4,6039603960396
57217	1861	1154	1620	7746,12426757813	-1,85148514851485	-8,85148514851485	-4,23762376237624
57377	1854	1170	1615	7751,00708007813	-1,92079207920792	-8,69306930693069	-4,28712871287129
57537	1867	1185	1600	7755,88989257813	-1,79207920792079	-8,54455445544554	-4,43564356435644
57697	1845	1157	1611	7760,77270507813	-2,00990099009901	-8,82178217821782	-4,32673267326733
57857	1846	1158	1597	7765,65551757813	-2	-8,81188118811881	-4,46534653465347
58017	1853	1184	1602	7770,53833007813	-1,93069306930693	-8,55445544554455	-4,41584158415842
58177	1872	1167	1582	7775,42114257813	-1,74257425742574	-8,72277227722772	-4,61386138613861
58337	1873	1167	1587	7780,30395507813	-1,73267326732673	-8,72277227722772	-4,56435643564356
58497	1853	1168	1577	7785,18676757813	-1,93069306930693	-8,71287128712871	-4,66336633663366
58657	1865	1169	1565	7790,06958007813	-1,81188118811881	-8,7029702970297	-4,78217821782178
58817	1867	1167	1611	7794,95239257813	-1,79207920792079	-8,72277227722772	-4,32673267326733
58977	1854	1196	1593	7799,83520507813	-1,92079207920792	-8,43564356435644	-4,50495049504951
59137	1848	1176	1618	7804,71801757813	-1,98019801980198	-8,63366336633663	-4,25742574257426
59297	1844	1175	1606	7809,60083007813	-2,01980198019802	-8,64356435643564	-4,37623762376238
59457	1875	1181	1614	7814,48364257813	-1,71287128712871	-8,58415841584158	-4,2970297029703
59617	1895	1172	1618	7819,36645507813	-1,51485148514851	-8,67326732673267	-4,25742574257426
59777	1863	1179	1612	7824,24926757813	-1,83168316831683	-8,6039603960396	-4,31683168316832
59937	1871	1169	1630	7829,13208007813	-1,75247524752475	-8,7029702970297	-4,13861386138614
60097	1844	1161	1600	7834,01489257813	-2,01980198019802	-8,78217821782178	-4,43564356435644
60257	1851	1190	1623	7838,89770507813	-1,95049504950495	-8,4950495049505	-4,20792079207921
60417	1866	1180	1623	7843,78051757813	-1,8019801980198	-8,59405940594059	-4,20792079207921
60577	1885	1178	1620	7848,66333007813	-1,61386138613861	-8,61386138613861	-4,23762376237624
60737	1881	1181	1591	7853,54614257813	-1,65346534653465	-8,58415841584158	-4,52475247524753
60897	1879	1165	1608	7858,42895507813	-1,67326732673267	-8,74257425742574	-4,35643564356436
61057	1876	1178	1595	7863,31176757813	-1,7029702970297	-8,61386138613861	-4,48514851485149
61217	1872	1164	1629	7868,19458007813	-1,74257425742574	-8,75247524752475	-4,14851485148515
61377	1882	1159	1632	7873,07739257813	-1,64356435643564	-8,8019801980198	-4,11881188118812
61537	1863	1181	1592	7877,96020507813	-1,83168316831683	-8,58415841584158	-4,51485148514852
61697	1874	1192	1631	7882,84301757813	-1,72277227722772	-8,47524752475248	-4,12871287128713
61857	1880	1165	1619	7887,72583007813	-1,66336633663366	-8,74257425742574	-4,24752475247525
62017	1885	1155	1605	7892,60864257813	-1,61386138613861	-8,84158415841584	-4,38613861386139
62177	1888	1162	1602	7897,49145507813	-1,58415841584158	-8,77227722772277	-4,41584158415842
62337	1876	1150	1593	7902,37426757813	-1,7029702970297	-8,89108910891089	-4,50495049504951
62497	1868	1174	1625	7907,25708007813	-1,78217821782178	-8,65346534653465	-4,18811881188119
62657	1892	1166	1616	7912,13989257813	-1,54455445544554	-8,73267326732673	-4,27722772277228
62817	1885	1167	1623	7917,02270507813	-1,61386138613861	-8,72277227722772	-4,20792079207921
62977	1862	1184	1602	7921,90551757813	-1,84158415841584	-8,55445544554455	-4,41584158415842
63137	1870	1172	1611	7926,78833007813	-1,76237623762376	-8,67326732673267	-4,32673267326733
63297	1884	1194	1600	7931,67114257813	-1,62376237623762	-8,45544554455446	-4,43564356435644
63457	1878	1190	1606	7936,55395507813	-1,68316831683168	-8,4950495049505	-4,37623762376238
