Shimmer1	Shimmer1	Shimmer1	Shimmer1
Timestamp	Accelerometer X	Accelerometer Y	Accelerometer Z
CAL	CAL	CAL	CAL
mSecs	m/(sec^2)	m/(sec^2)	m/(sec^2)
2848240,295	11,059	-1,109	-3,822
2848245,178	10,980	-1,099	-3,901
2848250,061	10,792	-1,089	-3,851
2848254,944	10,792	-1,050	-3,871
2848259,827	10,881	-1,089	-3,891
2848264,709	10,802	-1,030	-3,802
2848269,592	10,871	-1,139	-3,851
2848274,475	10,881	-1,000	-3,782
2848279,358	10,871	-1,089	-3,812
2848284,241	10,901	-0,921	-3,743
2848289,124	10,891	-0,891	-3,911
2848294,006	10,871	-1,000	-3,901
2848298,889	10,941	-1,040	-3,743
2848303,772	10,802	-0,990	-3,851
2848308,655	10,772	-1,030	-3,881
2848313,538	10,871	-1,050	-3,812
2848318,420	10,792	-0,990	-3,762
2848323,303	10,842	-0,950	-3,891
2848328,186	10,842	-1,069	-3,891
2848333,069	10,802	-1,030	-3,832
2848337,952	10,802	-1,149	-3,772
2848342,834	10,891	-0,960	-3,891
2848347,717	10,851	-1,059	-3,871
2848352,600	10,802	-1,119	-3,772
2848357,483	10,970	-0,941	-3,812
2848362,366	10,990	-1,079	-3,762
2848367,249	10,851	-0,960	-3,743
2848372,131	10,851	-0,941	-3,911
2848377,014	10,822	-1,020	-3,713
2848381,897	10,861	-1,000	-3,891
2848386,780	10,891	-1,139	-3,663
2848391,663	10,921	-1,010	-3,772
2848396,545	10,921	-1,030	-3,832
2848401,428	10,752	-1,030	-3,911
2848406,311	10,941	-0,941	-3,901
2848411,194	10,960	-1,000	-3,822
2848416,077	10,871	-1,079	-3,713
2848420,959	10,871	-1,198	-3,842
2848425,842	10,931	-0,980	-3,792
2848430,725	10,911	-1,010	-3,782
2848435,608	10,762	-1,228	-3,782
2848440,491	10,881	-1,059	-3,792
2848445,374	10,901	-1,079	-3,812
2848450,256	10,881	-1,000	-4,000
2848455,139	10,861	-0,950	-3,772
2848460,022	10,921	-0,931	-3,990
2848464,905	11,040	-1,139	-3,782
2848469,788	10,891	-1,040	-3,911
2848474,670	10,861	-0,970	-3,851
2848479,553	10,782	-0,970	-3,901
2848484,436	10,950	-0,960	-3,891
2848489,319	10,792	-0,911	-3,842
2848494,202	10,861	-1,089	-3,921
2848499,084	10,980	-1,089	-3,752
2848503,967	10,891	-1,020	-3,941
2848508,850	10,921	-0,990	-3,752
2848513,733	10,990	-0,881	-3,713
2848518,616	10,970	-1,109	-3,970
2848523,499	10,802	-1,069	-3,723
2848528,381	11,099	-1,030	-3,752
2848533,264	10,901	-0,861	-3,980
2848538,147	10,832	-1,119	-3,792
2848543,030	10,950	-1,040	-3,733
2848547,913	10,990	-1,129	-3,851
2848552,795	10,822	-1,079	-4,020
2848557,678	10,911	-1,050	-3,851
2848562,561	10,931	-1,089	-3,832
2848567,444	10,891	-0,990	-3,891
2848572,327	10,822	-1,040	-3,822
2848577,209	10,891	-1,010	-3,881
2848582,092	10,980	-0,950	-3,842
2848586,975	10,762	-1,079	-3,901
2848591,858	10,911	-1,129	-3,772
2848596,741	10,782	-1,139	-4,059
2848601,624	10,881	-0,970	-3,762
2848606,506	11,050	-0,990	-3,782
2848611,389	10,832	-0,931	-3,871
2848616,272	10,950	-1,099	-3,723
2848621,155	10,802	-1,129	-3,792
2848626,038	10,782	-1,030	-3,931
2848630,920	10,772	-1,020	-3,842
2848635,803	10,663	-1,040	-3,792
2848640,686	10,941	-1,119	-3,812
2848645,569	10,802	-0,970	-3,792
2848650,452	10,941	-1,079	-3,733
2848655,334	10,861	-1,158	-3,842
2848660,217	10,881	-1,119	-3,802
2848665,100	10,950	-0,950	-3,871
2848669,983	10,822	-1,020	-3,782
2848674,866	10,812	-1,000	-3,703
2848679,749	10,772	-0,980	-3,931
2848684,631	10,752	-1,168	-3,891
2848689,514	10,921	-1,030	-3,782
2848694,397	10,901	-1,050	-3,881
2848699,280	10,782	-1,099	-3,782
2848704,163	10,891	-1,208	-3,802
2848709,045	10,782	-0,950	-3,733
2848713,928	10,931	-0,921	-3,832
2848718,811	10,713	-1,010	-3,782
2848723,694	10,861	-1,099	-3,782
2848728,577	10,891	-0,980	-3,762
2848733,459	10,871	-0,911	-3,772
2848738,342	10,792	-1,050	-3,703
2848743,225	10,891	-1,119	-3,842
2848748,108	10,832	-1,168	-3,970
2848752,991	10,782	-0,822	-3,851
2848757,874	10,861	-0,950	-3,871
2848762,756	11,000	-0,911	-3,762
2848767,639	10,802	-1,129	-3,901
2848772,522	11,000	-1,059	-3,842
2848777,405	10,871	-1,069	-3,931
2848782,288	10,901	-1,000	-3,851
2848787,170	10,881	-1,218	-3,832
2848792,053	10,812	-1,020	-3,713
2848796,936	10,921	-1,149	-3,782
2848801,819	10,822	-0,990	-3,832
2848806,702	10,683	-1,119	-3,812
2848811,584	10,851	-0,931	-3,743
2848816,467	10,792	-1,119	-3,733
2848821,350	10,881	-1,010	-3,891
2848826,233	10,891	-1,059	-3,772
2848831,116	10,881	-1,168	-3,752
2848835,999	10,861	-1,228	-3,802
2848840,881	10,921	-0,990	-3,891
2848845,764	10,792	-1,040	-3,851
2848850,647	10,871	-0,990	-3,792
2848855,530	10,921	-1,139	-3,802
2848860,413	11,010	-1,099	-3,861
2848865,295	10,851	-1,010	-3,941
2848870,178	10,921	-1,079	-3,842
2848875,061	10,644	-1,059	-3,960
2848879,944	10,980	-1,020	-3,871
2848884,827	10,911	-1,030	-3,851
2848889,709	10,950	-1,050	-3,802
2848894,592	10,812	-1,149	-3,921
2848899,475	10,842	-1,069	-3,881
2848904,358	10,950	-0,941	-3,980
2848909,241	10,723	-1,000	-3,683
2848914,124	10,970	-0,950	-3,752
2848919,006	10,941	-1,010	-3,911
2848923,889	10,752	-1,178	-3,832
2848928,772	10,812	-0,980	-3,743
2848933,655	10,822	-0,921	-3,871
2848938,538	10,693	-1,257	-3,673
2848943,420	10,941	-0,980	-3,871
2848948,303	10,842	-0,990	-3,921
2848953,186	10,832	-1,010	-3,703
2848958,069	10,980	-1,089	-3,594
2848962,952	10,782	-1,050	-4,109
2848967,834	11,000	-1,030	-3,782
2848972,717	10,802	-1,050	-3,921
2848977,600	10,980	-0,911	-3,871
2848982,483	10,842	-1,129	-3,891
2848987,366	10,634	-1,089	-3,525
2848992,249	10,970	-1,040	-3,822
2848997,131	10,812	-1,079	-3,871
2849002,014	10,881	-1,059	-3,822
2849006,897	10,960	-1,129	-3,812
2849011,780	10,624	-1,535	-3,386
2849016,663	11,000	-1,069	-3,762
2849021,545	10,950	-1,149	-3,980
2849026,428	10,812	-0,505	-4,376
2849031,311	10,792	-1,079	-3,861
2849036,194	10,832	-1,000	-3,861
2849041,077	10,693	-1,050	-3,871
2849045,959	11,188	-0,950	-3,703
2849050,842	10,901	-0,911	-3,792
2849055,725	11,089	-1,030	-3,931
2849060,608	10,891	-0,960	-4,020
2849065,491	10,911	-1,040	-3,891
2849070,374	10,911	-1,050	-3,822
2849075,256	11,000	-0,723	-3,485
2849080,139	10,832	-1,208	-3,723
2849085,022	10,842	-0,980	-3,822
2849089,905	11,020	-1,010	-4,327
2849094,788	10,782	-0,990	-3,802
2849099,670	10,782	-1,059	-3,851
2849104,553	10,812	-1,059	-3,901
2849109,436	10,683	-0,782	-3,970
2849114,319	10,941	-1,119	-3,663
2849119,202	10,970	-1,000	-3,782
2849124,084	10,426	-0,980	-3,782
2849128,967	11,327	-1,020	-3,881
2849133,850	10,792	-0,950	-3,822
2849138,733	10,861	-0,931	-3,871
2849143,616	11,188	-0,861	-3,851
2849148,499	10,673	-0,911	-3,614
2849153,381	10,970	-0,950	-3,871
2849158,264	10,891	-1,099	-3,812
2849163,147	10,842	-1,050	-3,822
2849168,030	10,832	-1,158	-3,752
2849172,913	10,901	-1,010	-3,871
2849177,795	10,881	-0,970	-3,861
2849182,678	10,980	-0,990	-3,802
2849187,561	10,941	-0,970	-3,832
2849192,444	10,921	-1,030	-3,891
2849197,327	10,871	-1,069	-3,842
2849202,209	10,792	-1,079	-3,921
2849207,092	10,733	-1,050	-3,792
2849211,975	10,931	-1,020	-3,822
2849216,858	10,931	-0,871	-3,861
2849221,741	10,921	-1,119	-3,713
2849226,624	10,931	-0,950	-3,931
2849231,506	10,842	-0,970	-3,752
2849236,389	10,911	-1,059	-3,871
2849241,272	11,010	-1,030	-3,634
2849246,155	10,941	-1,119	-3,802
2849251,038	10,911	-1,079	-3,851
2849255,920	10,782	-0,901	-3,772
2849260,803	10,842	-0,960	-3,881
2849265,686	10,743	-1,030	-3,822
2849270,569	10,762	-1,000	-3,792
2849275,452	10,990	-1,040	-3,772
2849280,334	10,822	-0,901	-3,881
2849285,217	10,891	-1,109	-3,802
2849290,100	10,891	-1,030	-3,792
2849294,983	11,020	-0,990	-3,713
2849299,866	10,772	-1,119	-3,693
2849304,749	10,861	-1,059	-3,842
2849309,631	10,871	-1,178	-3,901
2849314,514	10,921	-0,980	-3,842
2849319,397	10,792	-1,149	-3,871
2849324,280	10,931	-1,010	-3,822
2849329,163	10,802	-1,119	-3,851
2849334,045	10,911	-1,059	-3,792
2849338,928	10,960	-1,040	-3,653
2849343,811	10,921	-1,050	-3,772
2849348,694	10,931	-1,208	-3,723
2849353,577	10,851	-0,980	-3,743
2849358,459	10,822	-1,109	-3,891
2849363,342	10,792	-1,040	-3,812
2849368,225	10,911	-1,149	-3,812
2849373,108	10,980	-1,010	-3,812
2849377,991	10,792	-0,990	-3,911
2849382,874	10,921	-1,020	-3,772
2849387,756	10,752	-0,990	-3,970
2849392,639	10,792	-0,950	-3,851
2849397,522	10,980	-1,089	-3,703
2849402,405	10,822	-1,030	-3,881
2849407,288	10,881	-0,990	-3,762
2849412,170	10,851	-0,990	-3,802
2849417,053	10,812	-1,089	-3,703
2849421,936	10,772	-1,059	-3,871
2849426,819	11,000	-1,089	-3,812
2849431,702	10,832	-1,020	-3,851
2849436,584	10,950	-1,050	-3,842
2849441,467	10,802	-1,158	-3,752
2849446,350	10,921	-1,020	-3,792
2849451,233	10,941	-1,069	-3,752
2849456,116	10,911	-1,119	-3,851
2849460,999	10,802	-1,079	-3,752
2849465,881	10,881	-1,030	-3,871
2849470,764	10,822	-1,109	-3,802
2849475,647	10,832	-1,059	-3,812
2849480,530	10,891	-1,030	-3,752
2849485,413	10,901	-1,079	-3,822
2849490,295	11,059	-1,218	-3,812
2849495,178	10,743	-1,000	-3,762
2849500,061	11,030	-0,772	-4,099
2849504,944	10,871	-1,168	-3,772
2849509,827	11,030	-1,000	-3,812
2849514,709	10,545	-1,129	-3,851
2849519,592	10,703	-1,099	-4,129
2849524,475	10,851	-1,119	-3,881
2849529,358	10,802	-1,059	-3,842
2849534,241	10,584	-1,574	-4,040
2849539,124	10,950	-1,109	-4,040
2849544,006	10,891	-1,158	-3,782
2849548,889	10,931	-1,069	-3,901
2849553,772	11,000	-0,772	-4,634
2849558,655	10,970	-1,218	-3,842
2849563,538	10,861	-1,010	-3,683
2849568,420	10,960	-1,040	-3,792
2849573,303	10,990	-0,941	-3,881
2849578,186	10,822	-0,970	-3,851
2849583,069	10,891	-0,990	-3,881
2849587,952	10,723	-1,050	-3,891
2849592,834	10,832	-0,931	-3,901
2849597,717	10,772	-1,079	-3,812
2849602,600	10,990	-1,129	-3,782
2849607,483	10,881	-1,069	-3,861
2849612,366	10,891	-1,139	-3,891
2849617,249	10,723	-0,950	-3,901
2849622,131	10,842	-1,010	-3,822
2849627,014	10,871	-1,089	-3,782
2849631,897	10,931	-1,000	-3,713
2849636,780	10,842	-1,050	-3,891
2849641,663	10,822	-0,950	-3,703
2849646,545	10,871	-1,149	-3,881
2849651,428	10,891	-1,129	-3,713
2849656,311	10,911	-0,990	-3,832
2849661,194	10,752	-1,000	-3,723
2849666,077	10,792	-1,030	-3,842
2849670,959	10,911	-0,881	-4,010
2849675,842	10,911	-1,139	-3,802
2849680,725	10,990	-1,089	-3,733
2849685,608	10,861	-1,079	-3,802
2849690,491	10,792	-1,188	-3,703
2849695,374	10,842	-1,149	-3,634
2849700,256	10,851	-0,970	-3,842
2849705,139	10,663	-0,980	-3,792
2849710,022	10,842	-0,970	-3,743
2849714,905	10,911	-1,010	-3,792
2849719,788	11,000	-1,099	-3,891
2849724,670	10,743	-1,050	-3,802
2849729,553	10,970	-0,980	-3,802
2849734,436	10,822	-0,931	-3,871
2849739,319	10,871	-1,040	-3,861
2849744,202	10,871	-0,970	-3,762
2849749,084	10,911	-0,960	-3,911
2849753,967	10,871	-1,109	-3,851
2849758,850	10,931	-1,158	-3,802
2849763,733	10,960	-1,079	-3,921
2849768,616	10,792	-0,970	-3,782
2849773,499	10,822	-1,030	-3,832
2849778,381	10,921	-1,010	-3,802
2849783,264	10,851	-0,990	-3,792
2849788,147	10,832	-0,960	-3,792
2849793,030	10,950	-0,941	-3,921
2849797,913	10,931	-1,079	-3,871
2849802,795	10,911	-1,079	-3,772
2849807,678	10,782	-0,980	-3,812
2849812,561	10,723	-1,040	-3,941
2849817,444	10,842	-0,990	-3,772
2849822,327	10,990	-0,941	-3,832
2849827,209	10,901	-0,980	-3,812
2849832,092	10,901	-0,911	-3,881
2849836,975	10,822	-0,990	-3,911
2849841,858	10,772	-1,059	-3,832
2849846,741	10,743	-0,990	-3,782
2849851,624	10,891	-0,980	-3,822
2849856,506	10,822	-1,000	-3,941
2849861,389	10,950	-1,079	-3,842
2849866,272	10,881	-1,119	-3,851
2849871,155	10,901	-1,119	-3,782
2849876,038	10,802	-1,010	-3,762
2849880,920	10,822	-1,158	-3,733
2849885,803	10,980	-1,079	-3,762
2849890,686	10,911	-1,109	-3,851
2849895,569	10,990	-1,109	-3,752
2849900,452	10,851	-0,901	-3,842
2849905,334	10,881	-0,921	-3,713
2849910,217	10,871	-0,970	-3,663
2849915,100	10,861	-1,040	-3,802
2849919,983	10,980	-1,059	-3,772
2849924,866	10,931	-0,990	-3,772
2849929,749	10,891	-1,040	-3,990
2849934,631	10,891	-0,970	-3,881
2849939,514	10,861	-1,040	-3,871
2849944,397	10,782	-0,911	-3,842
2849949,280	10,782	-1,000	-3,871
2849954,163	10,822	-1,020	-3,733
2849959,045	10,881	-1,139	-3,822
2849963,928	10,911	-0,950	-3,960
2849968,811	10,762	-1,099	-3,752
2849973,694	10,911	-1,129	-3,743
2849978,577	10,891	-1,178	-3,822
2849983,459	10,960	-1,059	-3,990
2849988,342	10,871	-1,089	-3,891
2849993,225	10,842	-1,079	-3,673
2849998,108	10,980	-1,069	-3,782
2850002,991	10,812	-1,089	-3,861
2850007,874	10,832	-0,921	-3,861
2850012,756	10,861	-1,059	-3,832
2850017,639	10,752	-1,129	-3,891
2850022,522	10,861	-1,139	-3,842
2850027,405	10,743	-0,970	-3,851
2850032,288	10,812	-0,950	-3,861
2850037,170	10,891	-0,911	-3,861
2850042,053	10,881	-1,109	-3,762
2850046,936	10,891	-1,040	-3,970
2850051,819	10,861	-0,960	-3,832
2850056,702	10,812	-1,208	-3,851
2850061,584	10,812	-1,010	-3,762
2850066,467	10,881	-1,059	-3,911
2850071,350	10,802	-0,960	-3,990
2850076,233	10,881	-1,149	-3,911
2850081,116	10,891	-1,010	-3,792
2850085,999	10,762	-1,050	-3,812
2850090,881	10,891	-1,168	-3,792
2850095,764	10,792	-1,119	-3,772
2850100,647	10,743	-0,911	-3,792
2850105,530	10,941	-0,990	-3,673
2850110,413	10,861	-0,941	-3,842
2850115,295	10,931	-1,208	-3,693
2850120,178	10,891	-1,040	-3,772
2850125,061	11,119	-0,911	-3,693
2850129,944	10,792	-1,069	-3,673
2850134,827	11,020	-1,119	-3,832
2850139,709	10,723	-1,059	-3,782
2850144,592	10,842	-1,089	-4,149
2850149,475	10,921	-0,950	-3,881
2850154,358	10,901	-0,901	-3,901
2850159,241	11,188	-0,891	-4,089
2850164,124	10,871	-1,030	-3,881
2850169,006	10,861	-0,901	-3,891
2850173,889	10,970	-1,050	-3,812
2850178,772	10,673	-1,317	-3,356
2850183,655	10,822	-0,990	-4,020
2850188,538	10,871	-0,960	-3,792
2850193,420	10,990	-1,030	-3,960
2850198,303	10,851	-0,980	-3,713
2850203,186	10,960	-1,109	-3,871
2850208,069	10,911	-1,129	-3,812
2850212,952	10,812	-0,970	-3,733
2850217,834	10,871	-1,099	-3,733
2850222,717	10,970	-1,089	-3,822
2850227,600	10,941	-0,980	-3,733
2850232,483	10,911	-0,941	-3,931
2850237,366	10,881	-1,158	-3,733
2850242,249	10,792	-1,089	-3,822
2850247,131	10,861	-1,149	-3,703
2850252,014	10,851	-1,059	-3,772
2850256,897	10,871	-0,950	-3,842
2850261,780	10,990	-0,980	-3,980
2850266,663	10,881	-0,960	-3,950
2850271,545	10,861	-1,099	-3,871
2850276,428	10,931	-1,099	-3,812
2850281,311	10,822	-1,079	-3,812
2850286,194	10,901	-0,950	-3,683
2850291,077	10,950	-1,020	-3,871
2850295,959	10,812	-1,050	-3,980
2850300,842	10,851	-0,832	-3,782
2850305,725	10,941	-1,020	-3,842
2850310,608	10,931	-0,931	-3,703
2850315,491	10,960	-1,020	-3,762
2850320,374	10,861	-1,020	-3,792
2850325,256	10,792	-1,000	-3,713
2850330,139	10,842	-1,020	-3,871
2850335,022	10,723	-1,079	-3,792
2850339,905	10,871	-1,109	-3,941
2850344,788	10,980	-0,970	-3,782
2850349,670	11,059	-0,921	-3,871
2850354,553	10,950	-0,950	-3,871
2850359,436	10,921	-0,970	-3,881
2850364,319	10,733	-1,040	-3,851
2850369,202	10,891	-1,168	-3,762
2850374,084	10,911	-1,069	-3,911
2850378,967	10,901	-0,990	-3,861
2850383,850	10,901	-1,030	-3,842
2850388,733	10,901	-1,000	-3,851
2850393,616	10,782	-0,990	-3,861
2850398,499	10,901	-1,020	-3,752
2850403,381	10,911	-0,980	-3,792
2850408,264	10,901	-1,099	-3,891
2850413,147	10,851	-0,990	-4,030
2850418,030	10,842	-0,941	-3,812
2850422,913	10,782	-0,950	-3,772
2850427,795	10,851	-1,030	-3,762
2850432,678	10,871	-1,079	-3,931
2850437,561	10,851	-1,059	-3,743
2850442,444	10,861	-1,139	-3,772
2850447,327	10,960	-1,030	-3,871
2850452,209	10,822	-1,050	-3,950
2850457,092	10,733	-1,099	-3,941
2850461,975	10,822	-1,099	-3,832
2850466,858	10,851	-1,158	-3,822
2850471,741	10,762	-1,079	-3,822
2850476,624	10,881	-1,030	-3,941
2850481,506	10,762	-1,030	-3,743
2850486,389	10,891	-0,980	-3,802
2850491,272	10,812	-1,079	-3,851
2850496,155	10,842	-0,960	-3,911
2850501,038	10,931	-0,931	-3,842
2850505,920	10,772	-0,911	-3,743
2850510,803	10,921	-0,911	-3,812
2850515,686	10,832	-0,950	-3,683
2850520,569	10,911	-1,079	-3,931
2850525,452	10,911	-1,030	-3,782
2850530,334	10,970	-0,980	-3,802
2850535,217	10,851	-1,079	-3,752
2850540,100	10,812	-0,931	-3,673
2850544,983	10,941	-0,980	-3,812
2850549,866	10,970	-1,109	-3,792
2850554,749	10,950	-1,030	-3,713
2850559,631	10,970	-1,030	-3,762
2850564,514	10,851	-1,050	-3,693
2850569,397	10,911	-1,010	-3,723
2850574,280	10,861	-1,040	-3,802
2850579,163	10,950	-1,069	-3,911
2850584,045	10,911	-0,950	-3,891
2850588,928	10,861	-1,149	-3,772
2850593,811	10,792	-0,881	-3,861
2850598,694	10,782	-1,089	-3,812
2850603,577	10,842	-1,059	-3,832
2850608,459	10,851	-1,059	-3,871
2850613,342	10,911	-0,980	-3,812
2850618,225	10,871	-1,050	-3,693
2850623,108	10,713	-1,109	-3,931
2850627,991	10,832	-1,228	-3,842
2850632,874	10,931	-0,960	-3,842
2850637,756	10,921	-1,020	-3,832
2850642,639	11,040	-1,089	-3,822
2850647,522	10,851	-1,119	-3,822
2850652,405	10,891	-1,020	-3,911
2850657,288	10,911	-1,050	-3,921
2850662,170	10,851	-1,099	-3,703
2850667,053	10,861	-0,901	-3,871
2850671,936	10,861	-1,020	-3,881
2850676,819	10,851	-0,881	-3,832
2850681,702	10,762	-1,000	-3,822
2850686,584	10,842	-0,960	-3,832
2850691,467	10,851	-1,069	-3,802
2850696,350	10,871	-1,000	-3,881
2850701,233	10,921	-1,228	-3,693
2850706,116	10,881	-1,000	-3,921
2850710,999	11,020	-1,149	-3,911
2850715,881	10,921	-1,109	-3,822
2850720,764	10,822	-0,980	-3,921
2850725,647	10,871	-1,129	-3,772
2850730,530	10,822	-0,960	-3,782
2850735,413	10,891	-1,109	-3,772
2850740,295	10,970	-0,990	-3,901
2850745,178	10,832	-1,020	-3,891
2850750,061	10,574	-1,139	-4,168
2850754,944	10,861	-0,950	-3,891
2850759,827	10,842	-1,020	-3,653
2850764,709	11,079	-1,109	-4,040
2850769,592	10,079	-1,446	-3,980
2850774,475	10,881	-0,990	-3,644
2850779,358	10,931	-1,010	-3,772
2850784,241	11,050	-0,832	-3,792
2850789,124	10,941	-0,752	-3,723
2850794,006	10,871	-1,198	-3,941
2850798,889	10,772	-1,099	-3,782
2850803,772	10,713	-1,446	-3,653
2850808,655	10,822	-1,089	-4,020
2850813,538	10,653	-1,238	-3,911
2850818,420	11,069	-0,733	-4,218
2850823,303	11,584	-0,832	-4,347
2850828,186	11,030	-1,089	-4,287
2850833,069	10,703	-1,030	-3,683
2850837,952	10,723	-1,149	-3,743
2850842,834	10,851	-0,891	-3,713
2850847,717	10,733	-1,089	-3,693
2850852,600	10,970	-1,020	-3,772
2850857,483	10,891	-1,089	-3,851
2850862,366	10,970	-1,158	-3,663
2850867,249	10,832	-0,970	-3,743
2850872,131	10,891	-0,941	-3,822
2850877,014	10,802	-1,099	-3,822
2850881,897	10,861	-1,168	-3,782
2850886,780	10,861	-1,000	-3,881
2850891,663	10,881	-1,119	-3,851
2850896,545	10,812	-0,970	-3,901
2850901,428	10,851	-1,139	-3,842
2850906,311	10,911	-1,129	-3,871
2850911,194	10,881	-0,931	-3,911
2850916,077	10,762	-1,050	-3,653
2850920,959	10,941	-1,059	-3,832
2850925,842	10,792	-0,891	-3,871
2850930,725	10,881	-1,079	-3,881
2850935,608	10,851	-1,010	-3,822
2850940,491	10,911	-1,010	-3,832
2850945,374	10,861	-1,089	-3,782
2850950,256	10,792	-1,010	-3,792
2850955,139	10,812	-0,931	-3,762
2850960,022	10,832	-0,960	-3,881
2850964,905	10,980	-1,040	-3,931
2850969,788	10,822	-0,980	-3,822
2850974,670	10,861	-1,119	-3,663
2850979,553	10,941	-1,020	-3,881
2850984,436	10,743	-0,941	-3,891
2850989,319	10,891	-1,050	-3,792
2850994,202	10,921	-0,990	-3,941
2850999,084	10,950	-1,208	-3,772
2851003,967	10,871	-1,059	-3,881
2851008,850	10,990	-0,970	-3,812
2851013,733	10,812	-0,921	-3,851
2851018,616	10,772	-1,030	-3,792
2851023,499	10,782	-0,931	-3,762
2851028,381	10,931	-0,950	-3,723
2851033,264	10,881	-1,030	-3,782
2851038,147	10,881	-1,069	-3,792
2851043,030	10,881	-0,960	-3,634
2851047,913	10,871	-1,119	-3,802
2851052,795	10,960	-1,129	-3,861
2851057,678	10,792	-1,069	-3,891
2851062,561	10,772	-0,990	-3,881
2851067,444	10,891	-1,059	-3,792
2851072,327	10,881	-0,931	-3,812
2851077,209	10,881	-1,158	-3,733
2851082,092	10,842	-1,040	-3,752
2851086,975	10,802	-1,089	-3,931
2851091,858	10,921	-0,921	-3,921
2851096,741	10,822	-1,079	-3,990
2851101,624	10,812	-0,970	-3,812
2851106,506	10,822	-0,980	-3,891
2851111,389	10,960	-1,030	-3,822
2851116,272	10,851	-1,030	-3,802
2851121,155	10,941	-0,950	-3,713
2851126,038	10,842	-1,059	-3,772
2851130,920	10,960	-0,990	-3,782
2851135,803	11,000	-1,000	-3,980
2851140,686	10,802	-1,050	-3,842
2851145,569	10,891	-1,079	-3,723
2851150,452	10,832	-1,079	-3,802
2851155,334	10,881	-0,950	-3,861
2851160,217	10,772	-1,040	-3,772
2851165,100	10,990	-1,069	-3,911
2851169,983	10,762	-1,099	-3,762
2851174,866	10,891	-1,010	-3,703
2851179,749	10,772	-1,030	-3,871
2851184,631	10,842	-1,050	-3,871
2851189,514	10,772	-1,000	-3,762
2851194,397	11,000	-1,089	-3,931
2851199,280	10,802	-0,980	-3,881
2851204,163	10,842	-1,010	-3,822
2851209,045	10,772	-0,921	-3,762
2851213,928	11,069	-0,980	-3,832
2851218,811	10,871	-0,990	-3,970
2851223,694	10,871	-1,030	-3,733
2851228,577	10,891	-1,168	-3,941
2851233,459	10,871	-1,069	-3,822
2851238,342	11,010	-1,109	-3,931
2851243,225	10,802	-1,030	-3,762
2851248,108	10,980	-1,069	-3,842
2851252,991	10,901	-1,050	-3,802
2851257,874	10,802	-1,069	-3,851
2851262,756	10,782	-1,089	-3,812
2851267,639	10,950	-1,059	-3,782
2851272,522	10,931	-1,010	-3,683
2851277,405	10,792	-1,228	-3,891
2851282,288	10,921	-0,941	-3,851
2851287,170	10,901	-1,050	-3,941
2851292,053	10,970	-1,089	-3,703
2851296,936	10,703	-0,970	-3,891
2851301,819	10,960	-0,911	-3,792
2851306,702	11,089	-1,010	-3,772
2851311,584	10,822	-1,129	-3,792
2851316,467	10,752	-1,158	-3,624
2851321,350	10,960	-1,040	-3,822
2851326,233	10,842	-1,109	-3,851
2851331,116	10,832	-1,059	-3,911
2851335,999	10,881	-1,050	-3,851
2851340,881	10,822	-1,089	-3,683
2851345,764	10,881	-1,000	-3,752
2851350,647	10,772	-1,020	-3,752
2851355,530	10,802	-0,980	-3,941
2851360,413	10,901	-1,000	-3,762
2851365,295	10,772	-0,941	-3,673
2851370,178	10,960	-1,020	-3,792
2851375,061	11,050	-0,545	-4,050
2851379,944	10,861	-0,950	-3,931
2851384,827	10,822	-0,881	-3,931
2851389,709	10,861	-1,010	-3,703
2851394,592	10,782	-1,218	-3,881
2851399,475	10,970	-1,079	-3,891
2851404,358	11,010	-1,000	-3,713
2851409,241	10,901	-1,059	-3,861
2851414,124	10,723	-0,970	-3,604
2851419,006	10,891	-0,950	-3,782
2851423,889	10,931	-1,079	-3,703
2851428,772	11,178	-0,950	-4,257
2851433,655	10,950	-0,812	-3,495
2851438,538	10,960	-1,000	-3,901
2851443,420	10,891	-1,168	-3,842
2851448,303	10,871	-0,891	-3,683
2851453,186	10,921	-1,059	-3,832
2851458,069	10,881	-1,099	-3,683
2851462,952	10,901	-1,050	-3,911
2851467,834	10,881	-1,030	-3,762
2851472,717	10,842	-1,000	-3,901
2851477,600	10,861	-1,050	-3,812
2851482,483	10,772	-1,069	-3,891
2851487,366	10,891	-1,059	-3,792
2851492,249	10,921	-1,030	-3,832
2851497,131	10,842	-1,059	-3,792
2851502,014	10,842	-1,000	-3,950
2851506,897	10,861	-1,089	-3,792
2851511,780	10,881	-1,059	-3,822
2851516,663	10,743	-1,059	-3,802
2851521,545	10,990	-1,129	-3,683
2851526,428	11,000	-1,178	-3,703
2851531,311	10,980	-1,059	-3,802
2851536,194	10,812	-1,099	-3,802
2851541,077	10,881	-1,059	-3,812
2851545,959	10,832	-1,000	-3,891
2851550,842	10,782	-1,089	-3,802
2851555,725	10,881	-0,990	-3,911
2851560,608	11,010	-1,020	-3,851
2851565,491	10,960	-1,099	-3,812
2851570,374	10,970	-1,089	-3,891
2851575,256	10,812	-1,050	-3,812
2851580,139	10,911	-1,050	-3,792
2851585,022	10,832	-1,099	-3,881
2851589,905	10,950	-0,960	-3,792
2851594,788	10,762	-0,911	-3,762
2851599,670	10,921	-1,079	-3,752
2851604,553	10,931	-1,139	-3,842
2851609,436	10,911	-1,109	-3,683
2851614,319	10,762	-1,139	-3,960
2851619,202	10,842	-0,960	-3,772
2851624,084	11,030	-1,040	-3,931
2851628,967	10,911	-1,129	-3,802
2851633,850	10,832	-1,079	-3,792
2851638,733	10,861	-1,099	-3,832
2851643,616	10,891	-1,030	-3,752
2851648,499	10,911	-0,861	-3,822
2851653,381	10,762	-1,030	-3,851
2851658,264	10,842	-1,139	-3,733
2851663,147	10,980	-1,050	-3,921
2851668,030	10,733	-0,871	-3,772
2851672,913	10,941	-1,040	-3,762
2851677,795	10,941	-0,950	-3,822
2851682,678	10,851	-0,990	-3,901
2851687,561	10,891	-0,921	-3,881
2851692,444	10,861	-0,901	-3,663
2851697,327	10,881	-1,050	-3,931
2851702,209	10,881	-1,089	-3,762
2851707,092	10,881	-0,960	-3,950
2851711,975	10,842	-1,099	-3,950
2851716,858	10,901	-0,950	-3,832
2851721,741	10,832	-1,050	-3,743
2851726,624	10,881	-1,069	-3,891
2851731,506	10,842	-0,990	-3,812
2851736,389	10,950	-0,970	-3,921
2851741,272	10,822	-1,119	-3,812
2851746,155	10,782	-1,040	-3,752
2851751,038	10,931	-0,990	-3,990
2851755,920	10,931	-1,109	-3,881
2851760,803	10,911	-1,099	-3,812
2851765,686	10,812	-1,168	-3,782
2851770,569	11,059	-1,030	-3,842
2851775,452	10,832	-1,040	-3,703
2851780,334	10,881	-0,941	-3,693
2851785,217	10,871	-0,970	-3,960
2851790,100	10,861	-1,119	-3,762
2851794,983	10,842	-1,020	-3,851
2851799,866	10,861	-1,059	-3,941
2851804,749	10,931	-1,139	-3,871
2851809,631	10,851	-1,010	-3,812
2851814,514	10,832	-1,069	-3,881
2851819,397	10,921	-1,020	-3,693
2851824,280	10,861	-0,931	-3,822
2851829,163	10,802	-1,000	-3,733
2851834,045	10,851	-1,099	-3,762
2851838,928	10,970	-1,129	-3,743
2851843,811	10,960	-1,089	-3,772
2851848,694	10,851	-1,069	-3,713
2851853,577	10,921	-1,040	-3,762
2851858,459	10,842	-1,010	-3,911
2851863,342	10,861	-1,099	-3,802
2851868,225	10,911	-1,020	-3,782
2851873,108	10,911	-1,020	-3,782
2851877,991	10,980	-1,010	-3,762
2851882,874	10,693	-1,010	-3,891
2851887,756	10,871	-1,069	-3,842
2851892,639	10,752	-1,109	-3,772
2851897,522	10,842	-0,990	-3,842
2851902,405	10,990	-1,010	-3,911
2851907,288	10,861	-1,277	-3,871
2851912,170	10,881	-1,089	-3,871
2851917,053	10,921	-0,950	-3,792
2851921,936	10,861	-0,970	-3,861
2851926,819	10,832	-1,030	-3,782
2851931,702	10,990	-1,020	-3,713
2851936,584	10,842	-1,059	-3,762
2851941,467	10,891	-0,980	-3,901
2851946,350	10,822	-1,119	-3,663
2851951,233	10,950	-1,040	-3,911
2851956,116	10,842	-1,040	-3,772
2851960,999	10,921	-0,990	-3,921
2851965,881	10,762	-1,030	-3,673
2851970,764	10,871	-1,099	-3,762
2851975,647	10,891	-1,050	-3,822
2851980,530	10,941	-1,129	-3,733
2851985,413	10,980	-1,129	-3,822
2851990,295	10,703	-0,950	-3,921
2851995,178	10,832	-1,030	-3,752
2852000,061	11,000	-1,594	-3,851
2852004,944	10,772	-0,901	-3,693
2852009,827	11,000	-1,059	-3,861
2852014,709	10,901	-1,050	-3,822
2852019,592	11,178	-1,099	-4,178
2852024,475	11,089	-0,683	-3,802
2852029,358	10,772	-1,069	-3,693
2852034,241	10,980	-1,089	-3,881
2852039,124	10,762	-1,000	-3,911
2852044,006	10,693	-1,139	-3,792
2852048,889	10,891	-1,099	-3,663
2852053,772	10,950	-0,970	-4,307
2852058,655	10,505	-1,178	-3,436
2852063,538	10,832	-1,040	-3,851
2852068,420	10,851	-1,089	-3,772
2852073,303	11,020	-1,040	-3,713
2852078,186	10,921	-1,020	-3,861
2852083,069	10,733	-0,980	-3,792
2852087,952	10,772	-1,089	-3,842
2852092,834	11,020	-1,020	-3,733
2852097,717	10,881	-1,158	-3,881
2852102,600	10,911	-1,050	-3,802
2852107,483	10,990	-1,099	-3,881
2852112,366	10,990	-0,980	-3,871
2852117,249	10,891	-1,020	-3,921
2852122,131	10,861	-0,960	-3,881
2852127,014	10,970	-0,970	-3,851
2852131,897	10,911	-1,069	-3,931
2852136,780	10,891	-1,089	-3,792
2852141,663	10,772	-1,109	-3,634
2852146,545	10,970	-1,020	-3,792
2852151,428	10,891	-0,861	-3,911
2852156,311	10,891	-0,980	-3,822
2852161,194	10,960	-1,050	-3,762
2852166,077	10,960	-1,089	-3,901
2852170,959	10,941	-1,168	-3,822
2852175,842	10,901	-1,059	-3,802
2852180,725	10,941	-1,158	-3,752
2852185,608	10,891	-1,069	-3,733
2852190,491	10,842	-1,119	-3,683
2852195,374	10,802	-1,089	-3,802
2852200,256	10,891	-1,158	-3,871
2852205,139	10,960	-0,941	-3,861
2852210,022	11,000	-1,020	-4,020
2852214,905	10,802	-1,079	-3,832
2852219,788	10,970	-1,050	-3,792
2852224,670	10,861	-1,040	-3,762
2852229,553	11,030	-1,069	-3,851
2852234,436	10,941	-1,129	-3,762
2852239,319	10,802	-1,050	-3,861
2852244,202	10,871	-0,901	-3,901
2852249,084	10,832	-1,119	-3,822
2852253,967	10,752	-0,990	-3,851
2852258,850	10,723	-1,000	-3,792
2852263,733	10,990	-0,960	-3,792
2852268,616	10,782	-1,050	-3,752
2852273,499	10,802	-1,218	-3,832
2852278,381	10,881	-1,089	-3,921
2852283,264	10,802	-1,257	-3,802
2852288,147	10,871	-0,980	-3,743
2852293,030	10,931	-1,000	-3,931
2852297,913	10,931	-1,079	-3,881
2852302,795	10,861	-0,980	-3,980
2852307,678	10,851	-1,020	-3,881
2852312,561	10,881	-1,198	-3,752
2852317,444	10,871	-0,990	-3,802
2852322,327	10,941	-1,099	-3,762
2852327,209	10,743	-1,069	-3,723
2852332,092	10,861	-1,069	-3,921
2852336,975	10,782	-1,050	-3,733
2852341,858	10,812	-1,059	-3,842
2852346,741	10,941	-1,089	-3,762
2852351,624	10,921	-1,109	-3,683
2852356,506	10,871	-1,069	-3,762
2852361,389	10,891	-1,030	-3,772
2852366,272	10,950	-1,109	-3,871
2852371,155	10,861	-1,050	-3,861
2852376,038	10,752	-1,109	-3,723
2852380,920	10,950	-1,208	-3,802
2852385,803	10,871	-1,069	-3,743
2852390,686	11,079	-1,010	-3,782
2852395,569	10,842	-0,970	-3,752
2852400,452	10,871	-1,069	-3,970
2852405,334	10,762	-1,059	-3,792
2852410,217	10,871	-1,099	-3,772
2852415,100	10,891	-0,950	-3,762
2852419,983	11,020	-1,000	-3,851
2852424,866	10,901	-1,149	-3,782
2852429,749	11,010	-1,198	-3,901
2852434,631	10,871	-1,050	-3,792
2852439,514	10,960	-0,950	-3,792
2852444,397	10,891	-0,921	-3,762
2852449,280	11,030	-1,020	-3,614
2852454,163	10,842	-1,050	-3,822
2852459,045	10,970	-0,980	-3,832
2852463,928	10,901	-1,139	-3,921
2852468,811	10,782	-1,099	-3,752
2852473,694	10,871	-1,030	-3,832
2852478,577	10,851	-1,109	-3,743
2852483,459	10,891	-1,030	-3,960
2852488,342	10,822	-0,960	-3,683
2852493,225	10,921	-1,119	-3,950
2852498,108	10,861	-1,208	-3,891
2852502,991	10,683	-1,020	-3,842
2852507,874	11,020	-0,990	-3,990
2852512,756	10,931	-1,238	-3,832
2852517,639	10,782	-0,881	-3,812
2852522,522	10,871	-1,010	-3,990
2852527,405	10,851	-1,030	-3,842
2852532,288	10,921	-1,069	-3,812
2852537,170	10,851	-1,059	-3,752
2852542,053	10,693	-1,218	-3,891
2852546,936	10,980	-1,050	-3,832
2852551,819	10,832	-0,960	-3,891
2852556,702	10,881	-1,059	-3,802
2852561,584	10,990	-0,901	-3,812
2852566,467	10,762	-1,109	-3,762
2852571,350	10,772	-1,059	-3,851
2852576,233	10,802	-0,990	-3,772
2852581,116	10,931	-1,198	-3,911
2852585,999	10,881	-1,030	-4,000
2852590,881	10,990	-1,040	-3,802
2852595,764	10,822	-1,010	-3,950
2852600,647	10,842	-1,069	-3,792
2852605,530	10,762	-0,980	-3,802
2852610,413	10,950	-1,069	-3,891
2852615,295	10,941	-0,941	-3,851
2852620,178	10,861	-1,050	-3,901
2852625,061	11,277	-0,822	-4,050
2852629,944	10,911	-1,030	-3,723
2852634,827	10,842	-1,069	-3,842
2852639,709	11,050	-1,208	-4,327
2852644,592	10,960	-0,812	-3,881
2852649,475	10,891	-1,050	-3,485
2852654,358	10,822	-1,079	-3,713
2852659,241	10,881	-0,941	-3,782
2852664,124	10,911	-0,733	-3,545
2852669,006	10,861	-1,069	-3,752
2852673,889	10,901	-0,980	-3,871
2852678,772	11,356	-0,832	-3,980
2852683,655	10,921	-0,733	-3,802
2852688,538	10,980	-1,020	-3,673
2852693,420	10,891	-1,030	-3,901
2852698,303	10,911	-0,960	-3,822
2852703,186	10,931	-1,139	-3,703
2852708,069	11,020	-1,020	-3,901
2852712,952	10,713	-1,069	-3,812
2852717,834	10,822	-0,921	-3,861
2852722,717	10,842	-1,010	-3,901
2852727,600	10,802	-1,109	-3,703
2852732,483	10,851	-0,950	-3,851
2852737,366	10,752	-0,990	-3,881
2852742,249	10,832	-1,020	-3,673
2852747,131	10,812	-1,059	-3,762
2852752,014	10,941	-0,941	-3,663
2852756,897	10,832	-0,901	-3,881
2852761,780	10,861	-1,089	-3,802
2852766,663	10,950	-1,109	-3,851
2852771,545	10,762	-1,089	-3,822
2852776,428	10,832	-1,020	-3,851
2852781,311	11,079	-0,832	-3,802
2852786,194	10,921	-1,089	-3,693
2852791,077	10,861	-1,099	-3,782
2852795,959	10,931	-1,149	-3,812
2852800,842	11,000	-1,089	-3,891
2852805,725	10,851	-0,960	-3,743
2852810,608	11,010	-1,119	-3,802
2852815,491	10,842	-0,980	-3,792
2852820,374	10,950	-1,030	-3,861
2852825,256	10,911	-1,059	-4,030
2852830,139	10,861	-1,069	-3,762
2852835,022	10,822	-1,040	-3,822
2852839,905	10,931	-1,040	-3,812
2852844,788	10,960	-0,970	-3,743
2852849,670	10,822	-0,980	-3,931
2852854,553	10,812	-1,000	-3,802
2852859,436	10,812	-0,941	-3,891
2852864,319	10,871	-1,089	-3,832
2852869,202	10,842	-1,178	-3,743
2852874,084	10,822	-1,139	-3,842
2852878,967	10,851	-1,109	-3,871
2852883,850	11,010	-1,149	-3,861
2852888,733	10,960	-1,059	-3,733
2852893,616	10,891	-1,059	-3,802
2852898,499	10,901	-1,069	-3,842
2852903,381	10,743	-1,030	-3,802
2852908,264	10,871	-1,020	-3,743
2852913,147	10,802	-1,149	-3,802
2852918,030	10,921	-0,931	-3,822
2852922,913	10,931	-1,050	-3,772
2852927,795	10,931	-1,030	-3,743
2852932,678	10,842	-0,990	-3,950
2852937,561	10,832	-1,109	-3,673
2852942,444	10,861	-0,980	-3,881
2852947,327	10,911	-1,109	-3,851
2852952,209	10,832	-1,099	-3,772
2852957,092	10,901	-1,089	-3,792
2852961,975	10,921	-1,079	-3,772
2852966,858	10,891	-1,059	-3,832
2852971,741	10,891	-1,099	-3,713
2852976,624	10,842	-1,059	-3,792
2852981,506	10,931	-1,099	-3,901
2852986,389	10,792	-1,089	-3,772
2852991,272	10,861	-0,921	-3,931
2852996,155	10,861	-0,960	-3,703
2853001,038	10,792	-1,050	-3,634
2853005,920	10,980	-1,020	-3,812
2853010,803	10,703	-1,020	-3,792
2853015,686	10,921	-1,059	-3,743
2853020,569	10,871	-1,109	-3,802
2853025,452	10,901	-1,030	-3,851
2853030,334	10,851	-1,010	-3,782
2853035,217	11,000	-1,020	-3,812
2853040,100	10,743	-1,178	-3,673
2853044,983	10,832	-1,079	-3,693
2853049,866	10,980	-1,050	-3,673
2853054,749	10,851	-1,010	-3,941
2853059,631	10,911	-1,040	-3,970
2853064,514	10,891	-0,950	-3,822
2853069,397	10,842	-0,980	-3,772
2853074,280	10,851	-0,941	-3,733
2853079,163	10,792	-1,109	-3,842
2853084,045	10,901	-1,030	-4,000
2853088,928	10,832	-1,020	-3,861
2853093,811	10,822	-1,000	-3,822
2853098,694	10,901	-1,050	-3,822
2853103,577	10,911	-0,871	-3,921
2853108,459	10,871	-0,743	-3,772
2853113,342	10,812	-0,990	-3,941
2853118,225	10,752	-1,119	-3,960
2853123,108	10,911	-0,881	-3,871
2853127,991	10,822	-0,960	-3,822
2853132,874	10,822	-1,119	-3,901
2853137,756	10,822	-1,069	-3,653
2853142,639	10,861	-1,109	-3,782
2853147,522	10,842	-0,871	-3,693
2853152,405	10,941	-1,050	-3,960
2853157,288	10,871	-0,990	-3,832
2853162,170	10,812	-1,198	-3,871
2853167,053	10,842	-1,069	-3,871
2853171,936	10,832	-1,000	-3,911
2853176,819	10,911	-1,168	-3,881
2853181,702	10,980	-1,119	-3,842
2853186,584	10,733	-1,149	-3,713
2853191,467	10,871	-1,208	-3,713
2853196,350	11,010	-1,010	-3,901
2853201,233	10,851	-1,178	-3,871
2853206,116	10,832	-0,970	-3,772
2853210,999	10,970	-1,109	-3,842
2853215,881	10,802	-1,000	-3,772
2853220,764	10,861	-1,119	-3,950
2853225,647	10,921	-0,970	-3,822
2853230,530	10,812	-1,050	-3,772
2853235,413	10,842	-1,119	-3,693
2853240,295	10,792	-1,040	-3,921
2853245,178	10,842	-1,069	-3,941
2853250,061	11,218	-1,149	-3,950
2853254,944	10,970	-0,960	-3,822
2853259,827	10,921	-1,020	-3,881
2853264,709	10,950	-1,010	-3,772
2853269,592	11,020	-1,059	-3,941
2853274,475	10,723	-0,881	-3,861
2853279,358	11,307	-1,317	-4,158
2853284,241	11,099	-0,921	-3,990
2853289,124	10,832	-1,188	-3,683
2853294,006	10,891	-1,099	-3,752
2853298,889	11,040	-0,871	-3,782
2853303,772	10,950	-1,119	-3,881
2853308,655	10,822	-1,040	-3,851
2853313,538	10,752	-1,040	-3,752
2853318,420	10,644	-0,822	-4,000
2853323,303	10,812	-1,099	-3,752
2853328,186	10,822	-1,109	-3,772
2853333,069	10,782	-1,079	-3,752
2853337,952	10,891	-0,871	-3,653
2853342,834	10,891	-1,238	-3,832
2853347,717	10,891	-1,188	-3,861
2853352,600	10,762	-1,089	-3,921
2853357,483	10,832	-0,911	-3,970
2853362,366	10,792	-1,099	-3,792
2853367,249	10,861	-1,040	-3,871
2853372,131	10,782	-0,911	-3,950
2853377,014	10,822	-1,000	-3,752
2853381,897	10,782	-0,970	-3,634
2853386,780	10,832	-1,178	-3,752
2853391,663	10,931	-0,911	-3,931
2853396,545	10,723	-1,099	-3,733
2853401,428	10,881	-1,020	-3,970
2853406,311	10,901	-1,178	-3,703
2853411,194	10,772	-0,911	-3,822
2853416,077	10,842	-1,040	-3,782
2853420,959	10,802	-1,089	-3,792
2853425,842	10,950	-1,010	-3,792
2853430,725	10,921	-0,970	-3,772
2853435,608	10,911	-1,168	-3,802
2853440,491	10,772	-1,040	-3,752
2853445,374	10,931	-0,970	-3,762
2853450,256	11,020	-1,178	-3,762
2853455,139	10,812	-1,178	-3,970
2853460,022	10,802	-1,000	-3,950
2853464,905	10,832	-1,149	-3,881
2853469,788	10,792	-1,030	-3,792
2853474,670	10,871	-1,119	-3,693
2853479,553	10,931	-1,188	-3,812
2853484,436	10,851	-1,050	-3,851
2853489,319	10,851	-1,010	-3,792
2853494,202	10,723	-1,000	-3,861
2853499,084	10,861	-1,050	-3,901
2853503,967	10,822	-1,178	-3,891
2853508,850	10,812	-1,030	-3,842
2853513,733	10,911	-1,050	-3,792
2853518,616	10,842	-1,158	-3,851
2853523,499	10,762	-1,040	-3,861
2853528,381	10,851	-1,010	-3,782
2853533,264	10,832	-1,010	-3,663
2853538,147	10,921	-1,040	-3,683
2853543,030	10,842	-1,059	-3,881
2853547,913	10,861	-1,069	-3,812
2853552,795	10,812	-0,931	-3,733
2853557,678	10,871	-1,139	-3,851
2853562,561	10,891	-1,079	-3,713
2853567,444	10,931	-1,149	-3,851
2853572,327	10,861	-0,960	-3,832
2853577,209	10,990	-0,980	-3,812
2853582,092	10,792	-1,059	-3,653
2853586,975	10,931	-0,990	-3,911
2853591,858	10,792	-1,000	-3,871
2853596,741	10,911	-1,059	-3,802
2853601,624	10,881	-1,030	-3,782
2853606,506	10,881	-1,020	-3,782
2853611,389	10,802	-1,149	-3,861
2853616,272	10,782	-1,129	-3,931
2853621,155	10,911	-1,069	-3,693
2853626,038	10,941	-1,000	-3,743
2853630,920	10,792	-0,960	-3,970
2853635,803	10,861	-1,129	-3,743
2853640,686	10,812	-1,089	-3,822
2853645,569	10,911	-1,129	-3,832
2853650,452	10,822	-1,188	-3,861
2853655,334	10,842	-0,990	-3,861
2853660,217	10,931	-1,030	-3,931
2853665,100	10,812	-1,119	-3,921
2853669,983	10,802	-1,040	-3,772
2853674,866	10,931	-0,990	-3,901
2853679,749	10,822	-1,010	-3,881
2853684,631	10,822	-0,861	-3,861
2853689,514	10,832	-1,119	-3,842
2853694,397	10,792	-1,099	-3,703
2853699,280	10,960	-1,139	-3,832
2853704,163	10,851	-1,079	-3,703
2853709,045	10,931	-1,079	-3,832
2853713,928	10,792	-1,069	-3,911
2853718,811	10,950	-1,099	-3,881
2853723,694	10,931	-1,109	-3,812
2853728,577	10,812	-1,079	-3,901
2853733,459	10,851	-1,079	-3,842
2853738,342	10,881	-1,168	-3,703
2853743,225	10,891	-1,129	-3,950
2853748,108	10,752	-1,198	-3,861
2853752,991	10,871	-1,050	-3,772
2853757,874	10,980	-1,079	-4,030
2853762,756	10,891	-1,040	-3,861
2853767,639	10,941	-1,040	-3,683
2853772,522	10,871	-1,109	-3,713
2853777,405	10,733	-1,129	-3,713
2853782,288	10,822	-1,119	-3,703
2853787,170	10,752	-1,109	-3,861
2853792,053	10,881	-0,980	-3,921
2853796,936	10,792	-0,960	-3,792
2853801,819	10,911	-0,990	-3,752
2853806,702	11,030	-1,119	-3,653
2853811,584	11,030	-1,089	-3,941
2853816,467	10,871	-0,931	-3,733
2853821,350	10,842	-1,040	-3,911
2853826,233	10,931	-1,010	-3,743
2853831,116	10,842	-1,000	-3,851
2853835,999	10,980	-1,149	-3,871
2853840,881	10,802	-1,089	-3,851
2853845,764	10,832	-1,149	-3,713
2853850,647	10,881	-1,069	-3,851
2853855,530	10,980	-1,129	-3,871
2853860,413	10,851	-1,069	-3,752
2853865,295	10,802	-1,188	-3,772
2853870,178	10,871	-1,050	-3,842
2853875,061	10,713	-0,792	-4,000
2853879,944	10,683	-1,050	-3,772
2853884,827	10,871	-1,040	-3,842
2853889,709	10,832	-1,109	-3,822
2853894,592	10,901	-1,059	-3,752
2853899,475	10,931	-1,208	-3,871
2853904,358	10,762	-1,059	-3,733
2853909,241	10,901	-0,911	-3,861
2853914,124	10,842	-1,168	-3,772
2853919,006	10,861	-1,020	-3,802
2853923,889	10,931	-1,010	-3,812
2853928,772	11,337	-0,743	-4,000
2853933,655	10,564	-1,119	-3,505
2853938,538	10,842	-1,119	-3,871
2853943,420	10,851	-1,069	-3,743
2853948,303	10,911	-1,188	-3,851
2853953,186	10,733	-0,970	-3,861
2853958,069	10,881	-1,109	-3,812
2853962,952	10,822	-1,059	-3,802
2853967,834	10,861	-0,970	-3,743
2853972,717	11,079	-1,089	-3,990
2853977,600	10,822	-1,089	-3,832
2853982,483	10,871	-1,000	-3,644
2853987,366	10,901	-1,069	-3,921
2853992,249	10,871	-1,040	-3,842
2853997,131	10,634	-1,109	-3,812
2854002,014	10,931	-1,119	-3,733
2854006,897	10,891	-0,891	-3,891
2854011,780	10,871	-0,891	-3,871
2854016,663	10,950	-0,950	-3,901
2854021,545	10,911	-1,050	-3,782
2854026,428	10,911	-1,149	-3,822
2854031,311	10,950	-0,881	-3,901
2854036,194	10,733	-1,010	-3,832
2854041,077	10,842	-0,990	-3,743
2854045,959	10,792	-1,050	-3,881
2854050,842	10,832	-0,990	-3,802
2854055,725	10,881	-1,079	-3,644
2854060,608	10,832	-1,158	-3,921
2854065,491	10,772	-0,990	-3,723
2854070,374	10,802	-1,050	-3,683
2854075,256	10,861	-1,020	-3,921
2854080,139	10,911	-0,960	-3,921
2854085,022	10,772	-1,000	-3,762
2854089,905	10,832	-1,109	-3,792
2854094,788	10,871	-0,911	-3,911
2854099,670	10,941	-1,069	-3,871
2854104,553	10,861	-1,109	-3,901
2854109,436	10,842	-1,079	-3,644
2854114,319	10,901	-1,089	-3,733
2854119,202	10,861	-1,050	-3,792
2854124,084	10,832	-1,149	-3,703
2854128,967	10,891	-1,079	-3,812
2854133,850	10,733	-1,089	-3,782
2854138,733	10,901	-1,109	-3,842
2854143,616	11,040	-1,119	-3,812
2854148,499	10,743	-1,119	-3,663
2854153,381	10,990	-1,069	-3,634
2854158,264	10,772	-0,970	-3,851
2854163,147	10,762	-1,069	-3,851
2854168,030	10,822	-1,089	-3,861
2854172,913	10,950	-0,960	-3,812
2854177,795	10,772	-1,050	-3,752
2854182,678	10,743	-1,079	-3,812
2854187,561	10,891	-1,000	-3,861
2854192,444	10,941	-0,990	-3,743
2854197,327	10,842	-1,030	-3,871
2854202,209	10,723	-1,188	-3,782
2854207,092	10,950	-1,099	-3,812
2854211,975	10,832	-1,079	-3,762
2854216,858	10,861	-1,099	-3,911
2854221,741	10,713	-0,990	-3,851
2854226,624	10,911	-1,139	-3,812
2854231,506	10,941	-1,139	-3,743
2854236,389	10,901	-0,990	-3,941
2854241,272	10,881	-1,109	-3,931
2854246,155	10,604	-0,980	-3,851
2854251,038	10,822	-1,069	-3,822
2854255,920	10,861	-1,089	-3,713
2854260,803	10,931	-1,010	-3,762
2854265,686	10,861	-1,099	-3,802
2854270,569	10,871	-1,030	-3,842
2854275,452	10,901	-1,010	-3,931
2854280,334	10,921	-1,040	-3,634
2854285,217	10,822	-1,069	-3,743
2854290,100	10,931	-1,188	-3,792
2854294,983	11,030	-1,079	-3,762
2854299,866	10,911	-1,030	-3,782
2854304,749	10,891	-0,980	-3,921
2854309,631	10,762	-0,931	-3,881
2854314,514	10,604	-0,851	-3,851
2854319,397	10,752	-0,950	-3,832
2854324,280	10,891	-1,079	-3,792
2854329,163	10,941	-1,129	-3,851
2854334,045	10,752	-1,198	-3,861
2854338,928	10,921	-0,891	-3,842
2854343,811	11,000	-1,050	-3,842
2854348,694	10,931	-0,911	-3,931
2854353,577	10,891	-1,089	-3,802
2854358,459	10,822	-0,970	-3,871
2854363,342	10,822	-1,020	-4,079
2854368,225	10,871	-1,059	-3,861
2854373,108	10,802	-0,980	-3,733
2854377,991	10,881	-1,040	-3,851
2854382,874	10,842	-1,040	-3,792
2854387,756	10,911	-1,069	-3,941
2854392,639	10,762	-1,099	-3,723
2854397,522	11,000	-1,069	-3,842
2854402,405	10,921	-0,911	-3,881
2854407,288	10,792	-0,970	-3,970
2854412,170	10,861	-0,990	-3,881
2854417,053	10,941	-1,158	-3,743
2854421,936	10,980	-1,109	-3,772
2854426,819	10,822	-1,158	-3,842
2854431,702	10,802	-1,178	-3,931
2854436,584	10,812	-1,010	-3,802
2854441,467	10,861	-1,069	-3,990
2854446,350	10,812	-0,931	-3,832
2854451,233	10,832	-1,030	-3,851
2854456,116	10,871	-0,970	-3,792
2854460,999	10,960	-1,030	-3,901
2854465,881	10,871	-0,980	-3,703
2854470,764	10,842	-1,188	-3,802
2854475,647	11,059	-0,960	-3,842
2854480,530	10,941	-1,040	-3,871
2854485,413	11,109	-1,040	-3,772
2854490,295	10,901	-1,099	-3,960
2854495,178	10,713	-1,059	-3,960
2854500,061	11,158	-1,119	-3,644
2854504,944	10,911	-0,861	-3,911
2854509,827	10,782	-1,069	-3,832
2854514,709	10,693	-0,941	-3,832
2854519,592	10,683	-0,980	-3,792
2854524,475	10,941	-0,901	-4,178
2854529,358	10,950	-1,079	-3,970
2854534,241	10,941	-0,980	-3,772
2854539,124	10,584	-0,782	-3,990
2854544,006	10,723	-1,109	-3,891
2854548,889	10,851	-1,109	-3,683
2854553,772	10,545	-0,832	-3,465
2854558,655	10,950	-1,040	-3,891
2854563,538	10,921	-1,010	-3,842
2854568,420	10,881	-1,059	-3,683
2854573,303	10,960	-1,000	-3,871
2854578,186	10,792	-1,020	-3,911
2854583,069	10,762	-1,020	-3,842
2854587,952	10,861	-1,109	-3,881
2854592,834	10,851	-1,059	-3,851
2854597,717	10,881	-0,990	-3,782
2854602,600	10,851	-1,228	-3,644
2854607,483	10,931	-1,050	-3,842
2854612,366	10,832	-0,970	-3,911
2854617,249	10,782	-1,089	-3,901
2854622,131	10,851	-1,139	-3,842
2854627,014	10,752	-1,109	-3,802
2854631,897	10,861	-1,089	-3,703
2854636,780	10,881	-1,089	-3,782
2854641,663	10,861	-1,149	-3,762
2854646,545	10,822	-1,119	-3,772
2854651,428	10,861	-1,059	-3,802
2854656,311	10,812	-1,099	-3,881
2854661,194	10,772	-1,040	-3,743
2854666,077	10,812	-1,000	-3,842
2854670,959	10,743	-1,129	-3,861
2854675,842	10,822	-1,089	-3,842
2854680,725	10,861	-0,950	-3,871
2854685,608	10,723	-1,030	-3,683
2854690,491	10,812	-1,000	-3,673
2854695,374	10,832	-1,158	-3,861
2854700,256	10,812	-0,921	-3,901
2854705,139	10,960	-0,980	-3,802
2854710,022	10,871	-1,030	-3,693
2854714,905	10,752	-1,040	-3,842
2854719,788	10,911	-0,891	-3,772
2854724,670	10,881	-0,921	-3,851
2854729,553	10,743	-1,040	-3,881
2854734,436	10,851	-0,970	-3,723
2854739,319	10,822	-1,010	-3,812
2854744,202	10,881	-1,000	-3,861
2854749,084	10,802	-1,010	-3,822
2854753,967	10,871	-0,931	-3,891
2854758,850	10,723	-1,129	-3,812
2854763,733	10,861	-1,050	-3,861
2854768,616	10,871	-1,119	-3,861
2854773,499	10,901	-0,980	-3,752
2854778,381	10,990	-1,030	-3,832
2854783,264	10,832	-0,960	-3,812
2854788,147	10,851	-1,119	-3,832
2854793,030	10,881	-1,050	-3,921
2854797,913	10,921	-1,010	-3,832
2854802,795	10,822	-0,931	-3,703
2854807,678	10,931	-1,050	-3,832
2854812,561	10,733	-1,178	-3,851
2854817,444	10,792	-1,069	-3,881
2854822,327	10,931	-0,921	-3,881
2854827,209	10,970	-1,089	-3,772
2854832,092	10,941	-0,970	-3,792
2854836,975	10,762	-0,950	-3,891
2854841,858	10,891	-1,040	-3,752
2854846,741	10,911	-0,911	-3,931
2854851,624	10,851	-0,990	-3,822
2854856,506	10,851	-0,950	-3,703
2854861,389	10,861	-1,050	-3,762
2854866,272	10,950	-1,168	-3,911
2854871,155	10,851	-0,921	-3,663
2854876,038	10,960	-0,941	-3,842
2854880,920	10,960	-1,079	-3,772
2854885,803	10,931	-1,040	-3,842
2854890,686	10,832	-1,000	-3,861
2854895,569	10,871	-1,040	-3,792
2854900,452	10,970	-1,030	-3,762
2854905,334	10,812	-1,069	-3,851
2854910,217	10,743	-1,030	-3,634
2854915,100	10,812	-0,941	-3,812
2854919,983	10,970	-1,089	-3,802
2854924,866	10,881	-1,040	-3,733
2854929,749	10,842	-1,050	-3,782
2854934,631	10,871	-1,079	-3,950
2854939,514	10,871	-1,089	-3,703
2854944,397	10,802	-1,119	-3,752
2854949,280	10,772	-1,020	-3,762
2854954,163	10,822	-0,990	-3,723
2854959,045	10,772	-1,099	-3,950
2854963,928	10,851	-1,099	-3,941
2854968,811	10,851	-1,069	-3,881
2854973,694	10,851	-0,970	-3,743
2854978,577	10,851	-1,089	-3,842
2854983,459	10,871	-1,119	-3,822
2854988,342	10,842	-1,020	-3,970
2854993,225	10,950	-1,178	-3,901
2854998,108	10,851	-1,139	-3,881
2855002,991	10,792	-1,129	-3,752
2855007,874	10,842	-1,010	-3,802
2855012,756	10,842	-1,079	-3,881
2855017,639	10,931	-1,040	-3,723
2855022,522	10,931	-1,119	-3,891
2855027,405	10,921	-1,079	-3,871
2855032,288	10,891	-1,069	-3,752
2855037,170	10,970	-1,188	-3,733
2855042,053	10,871	-1,059	-3,842
2855046,936	10,743	-1,020	-3,950
2855051,819	10,851	-1,089	-3,713
2855056,702	10,911	-0,931	-3,842
2855061,584	10,802	-1,059	-3,851
2855066,467	10,941	-0,980	-3,861
2855071,350	10,861	-0,931	-3,743
2855076,233	10,792	-0,990	-3,762
2855081,116	10,861	-1,069	-3,772
2855085,999	10,960	-1,069	-3,901
2855090,881	10,891	-1,059	-3,901
2855095,764	10,782	-1,089	-3,911
2855100,647	10,802	-0,980	-3,891
2855105,530	10,891	-1,089	-3,832
2855110,413	10,901	-1,149	-3,782
2855115,295	11,010	-0,950	-3,792
2855120,178	10,891	-1,139	-3,881
2855125,061	11,158	-0,802	-4,059
2855129,944	10,842	-0,960	-3,802
2855134,827	10,733	-1,089	-3,851
2855139,709	11,267	-0,851	-3,861
2855144,592	10,663	-1,000	-3,653
2855149,475	10,663	-1,366	-3,515
2855154,358	10,941	-1,010	-3,851
2855159,241	10,871	-1,059	-3,960
2855164,124	10,901	-1,119	-3,584
2855169,006	10,871	-1,010	-3,782
2855173,889	10,990	-1,050	-3,812
2855178,772	11,178	-0,663	-3,673
2855183,655	10,366	-1,515	-3,594
2855188,538	10,960	-1,149	-3,772
2855193,420	10,911	-1,010	-3,851
2855198,303	10,812	-1,020	-3,851
2855203,186	10,970	-1,069	-3,733
2855208,069	10,901	-1,000	-3,842
2855212,952	10,851	-1,168	-3,802
2855217,834	11,069	-0,960	-3,891
2855222,717	10,842	-0,980	-3,881
2855227,600	10,851	-1,188	-3,861
2855232,483	10,950	-0,970	-3,822
2855237,366	10,822	-1,050	-3,782
2855242,249	10,881	-1,109	-3,782
2855247,131	10,822	-1,109	-3,881
2855252,014	10,802	-1,257	-3,980
2855256,897	10,990	-1,040	-3,931
2855261,780	10,802	-1,030	-3,881
2855266,663	10,881	-1,020	-3,861
2855271,545	10,861	-1,089	-3,842
2855276,428	10,960	-1,129	-4,000
2855281,311	10,921	-1,040	-3,703
2855286,194	10,752	-1,030	-3,921
2855291,077	10,792	-0,960	-3,782
2855295,959	11,010	-1,059	-3,871
2855300,842	10,881	-1,020	-3,842
2855305,725	10,911	-1,050	-3,782
2855310,608	11,020	-1,059	-3,733
2855315,491	10,881	-0,990	-3,762
2855320,374	11,020	-0,990	-3,950
2855325,256	10,842	-0,980	-3,861
2855330,139	10,822	-1,119	-3,832
2855335,022	10,832	-0,990	-3,960
2855339,905	10,881	-1,059	-3,792
2855344,788	10,911	-1,267	-3,931
2855349,670	11,010	-1,069	-3,970
2855354,553	10,881	-0,990	-3,881
2855359,436	10,980	-1,020	-3,941
2855364,319	10,842	-1,010	-3,713
2855369,202	10,812	-1,059	-3,822
2855374,084	10,832	-1,069	-3,871
2855378,967	10,931	-0,980	-3,891
2855383,850	10,842	-1,020	-3,752
2855388,733	10,861	-0,921	-3,772
2855393,616	10,950	-1,069	-3,733
2855398,499	10,911	-0,960	-3,683
2855403,381	10,931	-0,970	-3,871
2855408,264	10,782	-0,990	-3,891
2855413,147	10,950	-1,089	-3,812
2855418,030	10,881	-1,099	-3,802
2855422,913	10,941	-1,059	-3,782
2855427,795	10,842	-1,218	-3,723
2855432,678	10,931	-1,020	-3,851
2855437,561	10,812	-1,109	-3,911
2855442,444	10,980	-0,970	-3,703
2855447,327	10,822	-1,020	-3,743
2855452,209	10,901	-1,000	-3,743
2855457,092	10,931	-1,198	-3,851
2855461,975	10,733	-1,069	-3,901
2855466,858	11,010	-1,040	-3,733
2855471,741	10,832	-0,950	-3,733
2855476,624	10,990	-1,000	-3,861
2855481,506	10,960	-1,050	-3,693
2855486,389	10,851	-0,931	-3,931
2855491,272	10,881	-1,079	-3,891
2855496,155	10,772	-1,059	-3,812
2855501,038	10,743	-1,040	-3,891
2855505,920	10,990	-1,059	-3,792
2855510,803	10,881	-1,010	-3,792
2855515,686	10,901	-1,000	-3,861
2855520,569	10,891	-0,970	-3,822
2855525,452	11,030	-1,069	-3,772
2855530,334	10,812	-1,089	-3,802
2855535,217	10,881	-1,168	-3,634
2855540,100	10,911	-1,020	-3,832
2855544,983	10,792	-1,030	-3,861
2855549,866	10,802	-1,129	-3,782
2855554,749	10,941	-1,010	-3,931
2855559,631	10,822	-1,030	-3,901
2855564,514	10,911	-1,089	-3,861
2855569,397	10,871	-1,109	-3,851
2855574,280	10,921	-1,198	-3,921
2855579,163	10,723	-1,059	-4,020
2855584,045	10,812	-1,168	-3,901
2855588,928	10,851	-1,020	-3,772
2855593,811	10,901	-1,079	-3,802
2855598,694	10,832	-1,109	-3,851
2855603,577	10,802	-1,010	-3,842
2855608,459	10,881	-1,089	-3,693
2855613,342	11,010	-1,050	-3,743
2855618,225	10,990	-1,000	-3,871
2855623,108	10,822	-1,109	-3,851
2855627,991	11,000	-1,010	-3,703
2855632,874	10,911	-0,990	-3,752
2855637,756	10,970	-0,980	-3,624
2855642,639	10,990	-1,050	-3,802
2855647,522	10,921	-1,119	-3,980
2855652,405	10,921	-0,950	-3,871
2855657,288	10,851	-1,089	-3,901
2855662,170	10,822	-1,030	-3,911
2855667,053	10,881	-1,030	-3,703
2855671,936	10,970	-1,168	-3,921
2855676,819	10,911	-1,059	-3,832
2855681,702	10,941	-1,079	-3,970
2855686,584	10,842	-1,208	-3,832
2855691,467	10,832	-1,089	-3,733
2855696,350	11,020	-1,158	-3,634
2855701,233	10,950	-1,059	-3,762
2855706,116	10,901	-1,059	-3,752
2855710,999	10,822	-1,010	-3,822
2855715,881	10,792	-1,129	-3,871
2855720,764	11,040	-0,901	-3,812
2855725,647	10,861	-0,980	-3,901
2855730,530	10,901	-0,941	-4,010
2855735,413	10,931	-1,059	-3,634
2855740,295	10,842	-0,970	-3,752
2855745,178	10,871	-1,139	-3,772
2855750,061	10,891	-1,644	-3,752
2855754,944	10,941	-1,030	-3,950
2855759,827	10,941	-0,990	-3,802
2855764,709	10,455	-1,248	-3,733
2855769,592	10,693	-1,228	-3,614
2855774,475	11,149	-1,079	-3,644
2855779,358	10,911	-0,950	-3,842
2855784,241	10,891	-1,149	-3,832
2855789,124	10,752	-0,752	-3,752
2855794,006	10,921	-0,990	-3,891
2855798,889	10,931	-1,040	-3,881
2855803,772	10,881	-1,188	-3,832
2855808,655	10,980	-0,891	-4,089
2855813,538	11,030	-1,020	-3,723
2855818,420	10,970	-1,069	-3,772
2855823,303	10,851	-1,010	-3,822
2855828,186	10,762	-0,931	-3,960
2855833,069	10,901	-1,089	-3,772
2855837,952	10,901	-1,010	-3,851
2855842,834	10,921	-1,059	-3,911
2855847,717	10,871	-1,030	-3,901
2855852,600	10,911	-1,030	-3,772
2855857,483	10,941	-1,109	-3,812
2855862,366	10,911	-1,129	-3,792
2855867,249	10,911	-1,000	-3,772
2855872,131	10,921	-1,089	-3,733
2855877,014	10,871	-0,980	-3,980
2855881,897	10,812	-1,059	-3,941
2855886,780	10,822	-1,109	-3,693
2855891,663	10,881	-1,109	-3,861
2855896,545	10,842	-0,980	-3,822
2855901,428	10,762	-1,099	-3,832
2855906,311	11,040	-1,089	-3,723
2855911,194	10,851	-1,109	-3,743
2855916,077	10,990	-0,970	-3,723
2855920,959	10,901	-0,950	-3,772
2855925,842	10,812	-1,129	-3,911
2855930,725	10,693	-1,109	-3,960
2855935,608	10,851	-0,990	-3,792
2855940,491	10,911	-1,069	-3,931
2855945,374	10,703	-1,040	-3,842
2855950,256	10,921	-0,970	-3,931
2855955,139	10,842	-1,178	-3,851
2855960,022	10,743	-1,010	-3,931
2855964,905	10,891	-1,149	-3,703
2855969,788	10,871	-1,020	-3,663
2855974,670	10,911	-0,980	-3,881
2855979,553	10,693	-1,139	-3,871
2855984,436	10,792	-1,129	-3,901
2855989,319	10,861	-1,040	-3,950
2855994,202	10,861	-1,119	-3,921
2855999,084	10,832	-0,980	-3,723
2856003,967	11,010	-1,059	-3,653
2856008,850	10,881	-1,139	-3,842
2856013,733	10,842	-1,059	-3,723
2856018,616	10,822	-1,020	-3,871
2856023,499	10,891	-1,079	-3,792
2856028,381	10,891	-1,089	-3,881
2856033,264	10,881	-1,010	-3,960
2856038,147	10,911	-0,980	-3,792
2856043,030	10,891	-1,158	-3,802
2856047,913	10,842	-0,990	-3,891
2856052,795	10,891	-1,149	-3,881
2856057,678	10,772	-0,970	-3,842
2856062,561	10,851	-1,119	-3,772
2856067,444	10,881	-1,099	-3,743
2856072,327	10,950	-1,010	-3,703
2856077,209	10,881	-1,020	-3,802
2856082,092	10,802	-1,010	-3,752
2856086,975	10,990	-1,040	-3,871
2856091,858	10,812	-1,020	-3,950
2856096,741	10,941	-0,980	-3,921
2856101,624	10,842	-1,119	-3,871
2856106,506	10,861	-0,990	-3,871
2856111,389	10,693	-1,050	-3,812
2856116,272	10,851	-1,040	-3,861
2856121,155	10,743	-1,050	-3,921
2856126,038	10,822	-1,129	-3,782
2856130,920	10,743	-0,970	-3,950
2856135,803	10,911	-1,020	-3,861
2856140,686	10,842	-1,139	-3,644
2856145,569	10,941	-1,109	-3,970
2856150,452	10,782	-1,010	-3,812
2856155,334	10,842	-1,040	-3,812
2856160,217	10,792	-1,139	-3,802
2856165,100	10,921	-0,980	-3,822
2856169,983	10,832	-0,980	-3,792
2856174,866	10,891	-1,109	-3,881
2856179,749	10,772	-1,059	-3,822
2856184,631	10,891	-1,079	-3,822
2856189,514	10,901	-0,950	-3,861
2856194,397	10,960	-1,178	-3,604
2856199,280	10,881	-0,980	-3,871
2856204,163	10,941	-0,980	-3,752
2856209,045	10,921	-1,050	-3,842
2856213,928	10,762	-1,000	-3,772
2856218,811	10,842	-0,970	-3,822
2856223,694	10,871	-1,099	-3,574
2856228,577	11,010	-1,089	-3,802
2856233,459	10,950	-1,050	-3,624
2856238,342	10,941	-1,059	-3,911
2856243,225	10,921	-1,139	-3,851
2856248,108	10,960	-0,970	-3,851
2856252,991	10,802	-1,050	-3,772
2856257,874	10,891	-1,099	-3,762
2856262,756	10,931	-0,960	-3,752
2856267,639	10,762	-0,980	-3,832
2856272,522	10,851	-1,218	-3,871
2856277,405	10,960	-1,010	-3,782
2856282,288	10,881	-1,099	-3,921
2856287,170	10,970	-1,000	-3,842
2856292,053	10,901	-1,139	-3,812
2856296,936	10,901	-1,010	-3,693
2856301,819	10,881	-0,980	-3,911
2856306,702	10,891	-1,059	-3,703
2856311,584	10,812	-1,099	-3,832
2856316,467	10,861	-1,050	-3,861
2856321,350	10,871	-0,931	-3,812
2856326,233	10,762	-0,990	-3,762
2856331,116	10,881	-0,980	-3,891
2856335,999	10,901	-1,050	-3,802
2856340,881	10,891	-1,099	-3,762
2856345,764	10,851	-1,050	-3,663
2856350,647	11,030	-1,099	-3,901
2856355,530	10,921	-1,158	-3,733
2856360,413	10,842	-1,059	-3,822
2856365,295	10,871	-1,020	-3,812
2856370,178	10,950	-1,089	-3,802
2856375,061	10,693	-0,960	-3,950
2856379,944	10,901	-1,030	-3,950
2856384,827	10,921	-1,139	-3,871
2856389,709	10,861	-0,950	-3,723
2856394,592	10,624	-0,980	-4,109
2856399,475	10,842	-1,030	-3,752
2856404,358	11,059	-1,000	-3,832
2856409,241	10,713	-0,812	-4,000
2856414,124	10,950	-0,980	-3,703
2856419,006	11,050	-1,208	-3,832
2856423,889	10,465	-1,218	-3,693
2856428,772	10,871	-0,881	-3,881
2856433,655	10,901	-1,000	-3,861
2856438,538	10,743	-0,980	-3,842
2856443,420	11,020	-1,129	-3,842
2856448,303	10,891	-1,089	-3,723
2856453,186	10,871	-1,000	-3,802
2856458,069	10,901	-1,089	-3,743
2856462,952	10,851	-1,000	-3,950
2856467,834	10,842	-1,109	-3,802
2856472,717	10,970	-1,099	-3,634
2856477,600	11,030	-1,089	-3,861
2856482,483	10,871	-0,921	-3,881
2856487,366	10,911	-0,921	-3,921
2856492,249	10,970	-1,069	-3,832
2856497,131	10,861	-1,020	-3,842
2856502,014	10,941	-1,188	-3,842
2856506,897	10,921	-1,168	-3,861
2856511,780	10,812	-1,129	-3,653
2856516,663	10,851	-0,990	-3,970
2856521,545	10,832	-1,010	-3,851
2856526,428	10,842	-0,911	-3,861
2856531,311	10,941	-0,941	-3,792
2856536,194	10,960	-1,158	-3,733
2856541,077	10,941	-1,099	-3,960
2856545,959	10,792	-1,010	-3,792
2856550,842	10,921	-1,119	-3,802
2856555,725	10,842	-1,030	-3,782
2856560,608	10,891	-1,030	-3,812
2856565,491	10,970	-1,158	-3,881
2856570,374	10,891	-1,158	-3,901
2856575,256	10,931	-1,099	-3,653
2856580,139	10,861	-1,030	-3,733
2856585,022	10,911	-1,069	-3,644
2856589,905	10,802	-1,089	-3,792
2856594,788	10,842	-1,099	-3,891
2856599,670	10,832	-1,030	-3,970
2856604,553	10,792	-1,059	-3,723
2856609,436	10,842	-1,109	-3,822
2856614,319	10,901	-0,980	-3,693
2856619,202	10,970	-1,050	-3,782
2856624,084	10,822	-0,960	-3,792
2856628,967	10,891	-1,198	-3,931
2856633,850	10,960	-0,980	-3,921
2856638,733	10,851	-0,941	-3,782
2856643,616	10,802	-1,050	-3,703
2856648,499	10,871	-1,040	-3,762
2856653,381	10,851	-1,050	-3,713
2856658,264	10,941	-1,020	-3,832
2856663,147	10,752	-1,139	-3,832
2856668,030	10,802	-1,178	-3,970
2856672,913	11,030	-1,030	-3,733
2856677,795	10,851	-0,941	-3,911
2856682,678	10,950	-1,040	-3,901
2856687,561	10,871	-1,158	-3,782
2856692,444	10,891	-1,059	-3,782
2856697,327	10,970	-1,139	-3,723
2856702,209	10,861	-1,139	-3,743
2856707,092	10,911	-1,069	-3,822
2856711,975	10,921	-0,911	-3,901
2856716,858	10,832	-0,931	-3,851
2856721,741	10,871	-1,000	-3,792
2856726,624	10,931	-1,000	-3,921
2856731,506	10,901	-1,149	-3,861
2856736,389	10,723	-1,069	-3,772
2856741,272	10,822	-1,069	-3,644
2856746,155	10,891	-1,149	-3,762
2856751,038	10,891	-0,990	-3,792
2856755,920	10,911	-1,050	-3,851
2856760,803	10,990	-1,020	-3,931
2856765,686	10,881	-1,010	-3,871
2856770,569	10,941	-1,050	-3,782
2856775,452	10,931	-1,109	-3,703
2856780,334	10,941	-1,030	-3,851
2856785,217	10,822	-1,000	-3,772
2856790,100	10,871	-1,000	-3,792
2856794,983	10,931	-1,059	-3,851
2856799,866	10,921	-1,010	-3,822
2856804,749	10,842	-0,911	-3,881
2856809,631	10,851	-1,079	-3,752
2856814,514	10,901	-1,010	-3,921
2856819,397	10,861	-1,079	-3,743
2856824,280	10,901	-1,129	-3,752
2856829,163	10,980	-1,208	-3,812
2856834,045	10,822	-1,040	-3,752
2856838,928	10,861	-1,030	-3,921
2856843,811	10,851	-1,178	-3,693
2856848,694	10,851	-1,149	-3,911
2856853,577	10,743	-1,000	-3,782
2856858,459	11,059	-1,000	-3,891
2856863,342	10,881	-1,089	-3,931
2856868,225	10,822	-1,059	-3,891
2856873,108	10,822	-0,960	-3,861
2856877,991	11,059	-1,069	-3,772
2856882,874	10,851	-1,050	-3,812
2856887,756	10,960	-1,119	-3,693
2856892,639	10,950	-1,010	-3,812
2856897,522	10,861	-0,990	-3,851
2856902,405	10,871	-0,911	-3,832
2856907,288	10,614	-1,228	-3,970
2856912,170	10,832	-1,158	-3,792
2856917,053	10,990	-1,010	-3,851
2856921,936	10,901	-1,089	-3,871
2856926,819	10,842	-1,000	-3,822
2856931,702	10,842	-1,149	-3,693
2856936,584	10,752	-1,129	-3,772
2856941,467	10,941	-1,020	-3,881
2856946,350	10,871	-1,089	-3,851
2856951,233	10,881	-1,139	-3,881
2856956,116	10,832	-1,010	-3,921
2856960,999	10,990	-1,010	-3,832
2856965,881	10,901	-0,941	-3,792
2856970,764	10,891	-0,960	-3,822
2856975,647	10,851	-1,089	-3,851
2856980,530	10,891	-1,069	-3,871
2856985,413	10,901	-0,970	-3,990
2856990,295	10,891	-1,099	-3,901
2856995,178	10,980	-1,119	-3,901
2857000,061	11,455	-0,782	-3,554
2857004,944	10,931	-0,931	-3,604
2857009,827	10,851	-1,059	-3,851
2857014,709	10,960	-1,119	-3,812
2857019,592	10,950	-0,564	-3,554
2857024,475	10,911	-1,010	-3,752
2857029,358	10,941	-0,990	-3,723
2857034,241	10,931	-1,198	-3,752
2857039,124	10,871	-1,040	-3,792
2857044,006	10,861	-0,980	-3,812
2857048,889	10,960	-0,921	-3,683
2857053,772	10,980	-1,050	-4,010
2857058,655	10,851	-1,030	-3,871
2857063,538	11,040	-1,059	-3,960
2857068,420	10,950	-1,079	-3,802
2857073,303	10,851	-1,248	-3,792
2857078,186	10,871	-1,188	-3,802
2857083,069	10,802	-1,099	-3,871
2857087,952	10,871	-1,000	-3,861
2857092,834	10,881	-1,069	-3,743
2857097,717	10,881	-1,020	-3,871
2857102,600	10,921	-1,059	-3,743
2857107,483	10,960	-1,069	-3,881
2857112,366	10,832	-0,980	-3,832
2857117,249	10,891	-1,050	-3,861
2857122,131	10,861	-0,921	-3,752
2857127,014	10,941	-1,040	-3,812
2857131,897	10,812	-1,079	-3,772
2857136,780	10,911	-1,059	-3,792
2857141,663	10,911	-1,079	-3,703
2857146,545	10,881	-1,079	-3,891
2857151,428	10,782	-1,040	-3,851
2857156,311	10,970	-1,059	-4,050
2857161,194	10,950	-1,099	-3,871
2857166,077	10,723	-0,931	-3,960
2857170,959	10,990	-1,020	-3,901
2857175,842	10,941	-0,990	-3,871
2857180,725	10,861	-0,980	-3,762
2857185,608	10,941	-1,089	-3,772
2857190,491	10,901	-1,050	-3,980
2857195,374	10,911	-1,020	-3,832
2857200,256	10,822	-1,089	-3,891
2857205,139	10,772	-1,000	-3,891
2857210,022	10,822	-1,069	-3,941
2857214,905	10,921	-1,119	-3,901
2857219,788	10,881	-1,079	-3,861
2857224,670	10,832	-0,980	-3,733
2857229,553	10,851	-1,010	-3,703
2857234,436	10,891	-1,069	-3,851
2857239,319	10,911	-1,119	-3,861
2857244,202	10,822	-1,218	-3,723
2857249,084	10,980	-1,129	-3,723
2857253,967	10,772	-1,020	-3,832
2857258,850	10,762	-0,980	-3,812
2857263,733	10,752	-1,030	-3,802
2857268,616	10,960	-0,921	-3,723
2857273,499	10,733	-1,040	-3,851
2857278,381	10,822	-1,129	-3,851
2857283,264	10,861	-1,109	-3,832
2857288,147	10,772	-1,119	-3,822
2857293,030	10,832	-1,198	-3,851
2857297,913	10,960	-1,089	-3,861
2857302,795	10,901	-1,129	-3,802
2857307,678	10,911	-1,099	-3,743
2857312,561	11,050	-0,950	-3,772
2857317,444	10,941	-1,069	-3,901
2857322,327	10,980	-1,129	-3,752
2857327,209	10,960	-1,050	-3,891
2857332,092	10,822	-1,030	-3,752
2857336,975	10,891	-0,990	-3,851
2857341,858	10,842	-1,079	-3,871
2857346,741	10,911	-0,960	-3,832
2857351,624	10,911	-1,139	-3,891
2857356,506	10,901	-1,099	-3,941
2857361,389	10,851	-1,089	-3,861
2857366,272	10,822	-1,069	-3,931
2857371,155	11,050	-1,010	-3,772
2857376,038	10,891	-1,129	-3,911
2857380,920	10,851	-1,010	-3,802
2857385,803	10,881	-0,990	-3,782
2857390,686	10,941	-1,099	-3,713
2857395,569	10,911	-1,089	-3,851
2857400,452	10,960	-0,960	-3,891
2857405,334	10,832	-1,139	-3,822
2857410,217	10,851	-1,069	-3,851
2857415,100	10,881	-1,208	-3,792
2857419,983	10,842	-1,079	-3,772
2857424,866	10,871	-0,950	-3,871
2857429,749	10,911	-1,158	-3,842
2857434,631	10,970	-1,050	-3,792
2857439,514	10,891	-1,119	-3,792
2857444,397	10,911	-1,020	-3,752
2857449,280	10,743	-1,119	-3,743
2857454,163	10,861	-1,079	-3,921
2857459,045	10,871	-0,931	-3,822
2857463,928	10,812	-0,941	-3,861
2857468,811	10,891	-1,119	-3,822
2857473,694	10,881	-1,158	-3,752
2857478,577	10,960	-1,099	-3,812
2857483,459	10,931	-1,119	-3,733
2857488,342	10,772	-1,228	-3,931
2857493,225	10,723	-1,139	-3,911
2857498,108	10,871	-1,069	-3,891
2857502,991	10,822	-1,040	-3,762
2857507,874	10,931	-1,089	-3,703
2857512,756	10,782	-1,089	-3,911
2857517,639	10,782	-1,000	-3,782
2857522,522	10,842	-1,079	-3,802
2857527,405	10,881	-1,079	-3,693
2857532,288	10,861	-1,109	-3,871
2857537,170	10,901	-1,178	-3,822
2857542,053	10,822	-1,030	-3,673
2857546,936	10,782	-1,010	-3,832
2857551,819	10,861	-1,109	-3,931
2857556,702	10,901	-0,990	-3,792
2857561,584	10,812	-0,960	-3,802
2857566,467	10,921	-0,931	-3,921
2857571,350	10,931	-1,030	-3,723
2857576,233	10,990	-0,960	-3,733
2857581,116	10,812	-1,000	-3,901
2857585,999	10,901	-0,941	-3,822
2857590,881	10,832	-1,040	-3,931
2857595,764	10,713	-1,030	-3,891
2857600,647	11,119	-1,178	-3,861
2857605,530	10,931	-1,000	-3,851
2857610,413	10,891	-1,020	-3,861
2857615,295	10,683	-0,891	-3,663
2857620,178	10,822	-1,000	-3,881
2857625,061	10,584	-0,970	-4,198
2857629,944	11,267	-1,030	-3,535
2857634,827	11,297	-0,901	-3,733
2857639,709	10,901	-0,921	-3,911
2857644,592	10,901	-1,238	-3,485
2857649,475	10,782	-1,010	-3,832
2857654,358	10,752	-1,020	-3,881
2857659,241	10,723	-0,970	-3,703
2857664,124	10,911	-1,000	-3,703
2857669,006	11,079	-1,050	-3,851
2857673,889	10,653	-1,525	-4,000
2857678,772	10,921	-1,109	-3,861
2857683,655	11,000	-0,990	-3,802
2857688,538	10,634	-0,970	-3,980
2857693,420	10,604	-1,010	-3,782
2857698,303	10,950	-1,149	-4,069
2857703,186	10,931	-1,069	-3,812
2857708,069	10,990	-1,020	-3,792
2857712,952	10,861	-0,941	-3,891
2857717,834	10,733	-1,030	-3,693
2857722,717	10,772	-1,149	-3,911
2857727,600	10,861	-0,980	-4,030
2857732,483	10,812	-1,059	-3,772
2857737,366	10,931	-0,950	-3,693
2857742,249	10,921	-1,089	-3,792
2857747,131	10,950	-1,030	-3,782
2857752,014	10,911	-1,109	-3,891
2857756,897	10,891	-1,050	-3,891
2857761,780	10,980	-0,980	-3,733
2857766,663	10,792	-0,970	-3,871
2857771,545	10,703	-1,139	-3,802
2857776,428	10,881	-1,030	-3,871
2857781,311	11,010	-1,099	-3,792
2857786,194	10,881	-1,059	-3,673
2857791,077	10,891	-1,000	-3,851
2857795,959	10,812	-1,188	-3,772
2857800,842	10,871	-1,099	-3,743
2857805,725	10,990	-1,040	-3,861
2857810,608	10,931	-1,089	-3,614
2857815,491	10,960	-0,990	-3,861
2857820,374	10,941	-1,020	-3,812
2857825,256	10,752	-1,069	-3,792
2857830,139	10,941	-0,871	-3,832
2857835,022	10,921	-0,990	-3,802
2857839,905	10,772	-1,168	-3,693
2857844,788	10,980	-1,010	-3,871
2857849,670	10,802	-1,119	-3,693
2857854,553	10,931	-1,050	-3,772
2857859,436	10,950	-0,950	-3,713
2857864,319	10,584	-0,891	-3,822
2857869,202	10,792	-1,050	-3,861
2857874,084	10,772	-0,950	-3,703
2857878,967	10,842	-1,139	-3,871
2857883,850	10,911	-1,069	-3,960
2857888,733	11,059	-0,931	-3,861
2857893,616	10,851	-0,970	-3,931
2857898,499	10,802	-1,000	-3,772
2857903,381	10,891	-1,020	-4,050
2857908,264	10,733	-1,168	-3,861
2857913,147	10,851	-1,050	-3,822
2857918,030	10,812	-1,089	-3,911
2857922,913	10,812	-0,970	-3,822
2857927,795	10,851	-0,970	-3,802
2857932,678	10,802	-1,059	-3,772
2857937,561	10,772	-1,089	-3,921
2857942,444	10,644	-1,158	-3,812
2857947,327	10,713	-1,139	-3,842
2857952,209	10,881	-1,020	-3,733
2857957,092	10,931	-1,020	-3,703
2857961,975	10,970	-1,139	-3,802
2857966,858	10,842	-0,980	-3,921
2857971,741	10,881	-1,069	-3,832
2857976,624	10,723	-1,079	-3,772
2857981,506	10,832	-1,168	-3,871
2857986,389	10,960	-1,050	-3,772
2857991,272	11,010	-1,109	-3,772
2857996,155	10,911	-0,970	-3,861
2858001,038	10,822	-1,020	-3,792
2858005,920	10,871	-1,010	-3,832
2858010,803	10,802	-1,079	-3,822
2858015,686	10,851	-1,089	-3,871
2858020,569	10,851	-1,079	-3,802
2858025,452	10,931	-1,010	-3,871
2858030,334	10,871	-1,168	-3,960
2858035,217	10,941	-0,970	-3,822
2858040,100	10,802	-1,079	-3,881
2858044,983	10,911	-1,119	-3,812
2858049,866	10,762	-0,990	-3,891
2858054,749	10,673	-1,010	-3,842
2858059,631	10,921	-0,980	-3,673
2858064,514	10,832	-1,129	-3,782
2858069,397	10,911	-1,139	-3,871
2858074,280	10,832	-1,069	-3,743
2858079,163	10,822	-1,069	-4,010
2858084,045	10,901	-0,931	-3,891
2858088,928	10,772	-1,040	-3,723
2858093,811	10,762	-1,040	-3,782
2858098,694	10,941	-1,168	-3,792
2858103,577	11,000	-1,020	-3,614
2858108,459	10,832	-1,040	-3,762
2858113,342	10,842	-0,990	-3,792
2858118,225	10,822	-0,950	-3,861
2858123,108	10,792	-1,050	-3,871
2858127,991	10,842	-1,178	-3,782
2858132,874	10,901	-1,129	-3,802
2858137,756	11,059	-1,010	-3,792
2858142,639	10,822	-1,020	-3,901
2858147,522	10,851	-1,139	-3,792
2858152,405	10,960	-0,950	-3,851
2858157,288	10,772	-1,079	-3,743
2858162,170	10,802	-0,980	-3,683
2858167,053	10,851	-1,059	-3,782
2858171,936	10,832	-1,149	-3,871
2858176,819	10,881	-1,059	-3,871
2858181,702	10,891	-1,050	-3,723
2858186,584	10,931	-1,168	-3,812
2858191,467	10,881	-1,010	-3,624
2858196,350	10,832	-1,099	-3,733
2858201,233	10,921	-1,099	-3,772
2858206,116	10,861	-1,158	-3,931
2858210,999	10,832	-1,168	-3,723
2858215,881	10,911	-0,931	-3,861
2858220,764	10,911	-1,000	-3,713
2858225,647	10,871	-1,069	-3,931
2858230,530	10,762	-1,000	-3,792
2858235,413	10,792	-1,099	-3,871
2858240,295	10,723	-1,050	-3,990
2858245,178	10,960	-0,941	-3,921
2858250,061	10,634	-1,198	-3,941
2858254,944	10,990	-1,257	-3,683
2858259,827	10,851	-1,020	-3,822
2858264,709	10,713	-1,089	-3,901
2858269,592	10,624	-0,941	-4,109
2858274,475	10,911	-1,099	-3,921
2858279,358	10,723	-1,069	-3,832
2858284,241	10,743	-0,861	-4,297
2858289,124	10,752	-1,040	-3,891
2858294,006	10,802	-1,119	-3,663
2858298,889	10,663	-1,040	-4,198
2858303,772	10,901	-1,059	-3,881
2858308,655	10,881	-1,129	-3,891
2858313,538	10,812	-1,030	-3,762
2858318,420	10,851	-1,050	-3,980
2858323,303	10,822	-1,257	-3,772
2858328,186	10,861	-0,931	-3,911
2858333,069	10,851	-1,059	-3,673
2858337,952	10,752	-1,099	-3,881
2858342,834	10,911	-1,059	-3,990
2858347,717	10,832	-1,040	-3,663
2858352,600	10,941	-0,911	-3,832
2858357,483	10,733	-1,040	-3,812
2858362,366	10,911	-1,059	-3,802
2858367,249	10,832	-1,188	-3,911
2858372,131	10,822	-0,921	-3,822
2858377,014	10,911	-0,980	-3,861
2858381,897	10,812	-1,059	-3,832
2858386,780	10,941	-1,040	-3,802
2858391,663	10,881	-1,089	-3,851
2858396,545	10,950	-0,980	-3,970
2858401,428	10,832	-1,178	-3,861
2858406,311	10,762	-0,891	-3,901
2858411,194	11,000	-0,822	-4,901
2858416,077	11,297	-0,772	-5,584
2858420,959	11,832	-1,218	-5,673
2858425,842	10,248	-1,901	-3,356
2858430,725	9,822	-1,960	-3,941
2858435,608	10,267	-1,911	-3,782
2858440,491	11,733	-1,109	-5,129
2858445,374	11,218	-1,228	-4,109
2858450,256	10,782	-0,901	-3,356
2858455,139	10,881	-0,564	-2,396
2858460,022	10,881	-0,327	-3,059
2858464,905	10,644	-0,703	-2,376
2858469,788	10,891	-0,663	-2,287
2858474,670	11,020	-0,564	-2,703
2858479,553	10,891	-1,059	-3,119
2858484,436	10,693	-1,168	-3,178
2858489,319	10,881	-1,208	-3,614
2858494,202	10,941	-1,129	-3,941
2858499,084	10,931	-1,168	-4,069
2858503,967	10,881	-0,891	-4,188
2858508,850	10,891	-1,139	-4,139
2858513,733	10,941	-1,149	-4,129
2858518,616	10,782	-1,010	-4,158
2858523,499	10,911	-0,861	-4,723
2858528,381	10,871	-1,158	-4,000
2858533,264	10,832	-1,178	-3,931
2858538,147	10,960	-0,970	-3,842
2858543,030	10,851	-1,119	-3,871
2858547,913	10,822	-0,861	-3,802
2858552,795	10,941	-0,861	-3,990
2858557,678	10,822	-0,980	-4,000
2858562,561	11,010	-0,980	-4,000
2858567,444	10,842	-1,000	-3,931
2858572,327	10,802	-1,109	-3,980
2858577,209	10,703	-1,119	-3,663
2858582,092	10,861	-1,030	-3,287
2858586,975	10,822	-0,931	-3,208
2858591,858	10,881	-0,931	-3,119
2858596,741	10,851	-1,020	-3,485
2858601,624	10,891	-1,119	-3,446
2858606,506	10,752	-1,119	-3,802
2858611,389	10,990	-0,990	-4,337
2858616,272	10,911	-1,040	-4,248
2858621,155	10,970	-0,842	-4,287
2858626,038	10,881	-0,960	-4,347
2858630,920	10,832	-1,139	-4,000
2858635,803	10,861	-1,069	-3,455
2858640,686	11,010	-0,921	-3,089
2858645,569	10,762	-1,149	-3,455
2858650,452	10,980	-1,228	-3,267
2858655,334	10,842	-1,059	-3,584
2858660,217	10,960	-1,119	-3,653
2858665,100	10,901	-1,158	-3,842
2858669,983	10,921	-1,069	-4,030
2858674,866	10,891	-1,050	-4,198
2858679,749	10,931	-1,040	-3,970
2858684,631	10,950	-1,010	-3,812
2858689,514	10,881	-1,119	-3,564
2858694,397	10,832	-0,772	-3,624
2858699,280	10,723	-0,574	-3,168
2858704,163	10,871	-0,198	-3,356
2858709,045	10,911	-0,158	-3,287
2858713,928	10,861	-0,178	-2,950
2858718,811	10,584	-0,475	-3,109
2858723,694	11,000	-1,040	-3,713
2858728,577	10,911	-1,178	-4,119
2858733,459	10,743	-1,584	-5,366
2858738,342	10,653	-1,624	-4,030
2858743,225	10,891	-1,347	-3,891
2858748,108	10,871	-1,139	-4,277
2858752,991	11,000	-0,980	-3,881
2858757,874	11,297	-0,842	-3,871
2858762,756	11,545	-0,683	-4,020
2858767,639	11,733	-0,881	-3,871
2858772,522	11,970	-0,366	-3,980
2858777,405	12,040	-0,347	-4,307
2858782,288	12,782	-0,020	-3,792
2858787,170	12,525	0,079	-3,634
2858792,053	12,129	0,168	-2,970
2858796,936	12,337	0,198	-3,416
2858801,819	11,762	-0,129	-4,010
2858806,702	11,347	-0,733	-3,525
2858811,584	9,990	-2,644	-1,931
2858816,467	9,267	-3,950	-1,426
2858821,350	9,980	-4,515	-1,634
2858826,233	10,208	-3,129	-2,733
2858831,116	10,921	-2,287	-4,327
2858835,999	10,743	-2,149	-5,228
2858840,881	11,079	-3,485	-5,822
2858845,764	10,099	-2,970	-5,347
2858850,647	10,515	-2,990	-5,317
2858855,530	10,941	-2,485	-5,188
2858860,413	11,465	-2,416	-4,832
2858865,295	11,713	-2,446	-4,634
2858870,178	11,921	-2,267	-4,040
2858875,061	12,267	-2,931	-4,178
2858879,944	11,842	-2,822	-4,198
2858884,827	10,950	-2,960	-3,970
2858889,709	10,663	-3,099	-3,772
2858894,592	10,485	-2,733	-4,168
2858899,475	11,455	-3,525	-3,931
2858904,358	10,772	-3,347	-4,386
2858909,241	11,743	-4,139	-4,772
2858914,124	11,317	-4,574	-5,069
2858919,006	11,317	-4,564	-5,020
2858923,889	11,257	-4,673	-4,644
2858928,772	11,228	-4,772	-5,238
2858933,655	11,406	-4,980	-5,267
2858938,538	11,683	-5,505	-5,673
2858943,420	11,584	-5,297	-5,634
2858948,303	11,208	-5,267	-5,386
2858953,186	10,792	-4,911	-4,762
2858958,069	10,505	-5,050	-4,436
2858962,952	10,713	-5,416	-4,525
2858967,834	10,851	-5,683	-4,693
2858972,717	10,683	-5,653	-4,743
2858977,600	10,693	-5,644	-4,743
2858982,483	10,376	-5,545	-4,772
2858987,366	10,436	-5,594	-4,802
2858992,249	10,139	-5,634	-4,614
2858997,131	10,307	-6,020	-4,782
2859002,014	10,178	-6,149	-4,673
2859006,897	10,228	-6,248	-4,198
2859011,780	9,891	-6,366	-4,149
2859016,663	9,752	-6,426	-4,109
2859021,545	9,762	-6,347	-4,089
2859026,428	9,307	-6,050	-4,030
2859031,311	8,822	-5,931	-3,921
2859036,194	8,653	-5,802	-3,465
2859041,077	10,406	-6,574	-2,109
2859045,959	8,931	-7,752	-3,396
2859050,842	9,574	-7,158	-2,851
2859055,725	8,822	-7,317	-2,614
2859060,608	8,287	-7,248	-2,198
2859065,491	8,267	-7,228	-2,198
2859070,374	8,059	-7,297	-2,634
2859075,256	8,149	-7,228	-2,990
2859080,139	7,693	-7,277	-3,010
2859085,022	7,129	-7,396	-2,901
2859089,905	7,000	-6,950	-2,574
2859094,788	6,743	-7,040	-2,386
2859099,670	6,653	-7,475	-2,861
2859104,553	6,515	-7,406	-2,802
2859109,436	6,030	-7,099	-2,653
2859114,319	5,574	-6,901	-2,366
2859119,202	5,356	-6,901	-2,188
2859124,084	5,554	-6,970	-2,594
2859128,967	5,554	-7,574	-3,089
2859133,850	5,168	-7,406	-2,812
2859138,733	4,525	-7,366	-2,228
2859143,616	3,891	-7,851	-1,901
2859148,499	4,228	-7,842	-2,347
2859153,381	3,901	-8,426	-2,465
2859158,264	3,772	-8,337	-2,050
2859163,147	3,069	-8,475	-1,772
2859168,030	2,713	-8,842	-1,297
2859172,913	2,218	-8,762	-1,406
2859177,795	2,149	-8,950	-0,812
2859182,678	1,604	-9,277	-0,663
2859187,561	1,762	-9,376	-1,149
2859192,444	1,792	-9,752	-1,594
2859197,327	1,594	-9,980	-2,010
2859202,209	1,535	-10,158	-1,792
2859207,092	1,198	-10,000	-1,624
2859211,975	1,307	-9,624	-2,069
2859216,858	1,663	-9,238	-2,842
2859221,741	2,248	-9,287	-3,327
2859226,624	1,960	-9,337	-3,149
2859231,506	0,960	-9,564	-2,871
2859236,389	0,802	-10,327	-2,465
2859241,272	0,277	-10,356	-2,069
2859246,155	0,624	-9,911	-1,950
2859251,038	-0,663	-8,911	-1,614
2859255,920	0,069	-8,218	-0,634
2859260,803	0,356	-9,822	-0,911
2859265,686	-0,376	-9,990	-1,238
2859270,569	-0,861	-9,792	-1,337
2859275,452	-0,366	-9,475	-1,267
2859280,334	-0,545	-9,941	-0,713
2859285,217	-0,822	-9,980	-1,218
2859290,100	-0,802	-9,455	-1,574
2859294,983	-0,941	-9,178	-1,406
2859299,866	-0,941	-8,960	-1,436
2859304,749	-0,950	-8,782	-1,564
2859309,631	-0,743	-8,713	-1,743
2859314,514	-1,109	-8,802	-1,297
2859319,397	-1,376	-8,911	-1,218
2859324,280	-1,178	-8,604	-0,891
2859329,163	-1,782	-8,198	-0,802
2859334,045	-1,931	-8,178	-0,554
2859338,928	-1,822	-8,564	-0,356
2859343,811	-2,535	-9,248	-0,347
2859348,694	-2,624	-9,535	-0,782
2859353,577	-2,812	-9,861	-0,970
2859358,459	-3,010	-9,693	-1,020
2859363,342	-2,960	-9,436	-1,257
2859368,225	-2,782	-9,198	-1,228
2859373,108	-3,010	-8,723	-1,495
2859377,991	-2,673	-8,178	-1,752
2859382,874	-2,564	-1,703	-5,208
2859387,756	-1,386	-3,614	-4,980
2859392,639	-2,267	-7,089	-3,545
2859397,522	-3,970	-10,178	-2,495
2859402,405	-5,069	-11,317	-1,792
2859407,288	-5,297	-10,594	-2,168
2859412,170	-5,990	-10,495	-2,248
2859417,053	-5,040	-9,733	-2,059
2859421,936	-4,505	-8,663	-2,277
2859426,819	-4,584	-8,010	-2,673
2859431,702	-4,782	-7,673	-2,644
2859436,584	-4,861	-8,059	-2,663
2859441,467	-4,574	-8,376	-2,743
2859446,350	-5,970	-8,050	-1,911
2859451,233	-5,317	-7,743	-3,188
2859456,116	-3,802	-7,139	-3,158
2859460,999	-4,416	-5,861	-3,396
2859465,881	-4,683	-5,089	-3,535
2859470,764	-5,307	-4,842	-2,772
2859475,647	-5,624	-4,564	-3,198
2859480,530	-6,802	-5,168	-3,723
2859485,413	-7,842	-5,970	-3,386
2859490,295	-7,782	-6,485	-3,871
2859495,178	-8,743	-7,248	-3,416
2859500,061	-7,495	-7,228	-3,812
2859504,944	-7,465	-5,762	-4,188
2859509,827	-7,416	-5,089	-4,307
2859514,709	-7,475	-4,653	-4,426
2859519,592	-7,396	-3,990	-4,347
2859524,475	-7,703	-4,010	-4,891
2859529,358	-7,356	-4,248	-5,040
2859534,241	-7,782	-3,921	-5,485
2859539,124	-7,752	-3,743	-4,713
2859544,006	-7,921	-3,584	-4,455
2859548,889	-7,980	-4,069	-4,752
2859553,772	-8,376	-3,891	-4,119
2859558,655	-8,743	-3,772	-4,317
2859563,538	-8,703	-3,980	-4,287
2859568,420	-8,861	-4,228	-4,525
2859573,303	-8,911	-4,000	-4,505
2859578,186	-8,851	-3,861	-4,871
2859583,069	-8,683	-3,396	-4,950
2859587,952	-8,386	-3,198	-5,238
2859592,834	-8,069	-2,663	-5,277
2859597,717	-7,782	-2,495	-5,386
2859602,600	-7,693	-2,248	-5,178
2859607,483	-7,624	-2,010	-4,891
2859612,366	-7,475	-1,614	-5,109
2859617,249	-7,545	-1,337	-5,347
2859622,131	-7,871	-0,950	-5,693
2859627,014	-8,030	-0,931	-5,762
2859631,897	-8,267	-0,772	-5,554
2859636,780	-8,436	-0,683	-5,475
2859641,663	-8,653	-0,505	-5,248
2859646,545	-8,614	-0,564	-5,386
2859651,428	-8,436	-0,604	-5,505
2859656,311	-8,515	-0,990	-5,604
2859661,194	-8,416	-0,713	-5,861
2859666,077	-8,267	-0,495	-5,802
2859670,959	-8,406	-0,634	-5,980
2859675,842	-8,317	-0,614	-6,000
2859680,725	-8,376	-0,624	-6,030
2859685,608	-8,446	-0,653	-6,010
2859690,491	-8,436	-0,871	-5,584
2859695,374	-8,436	-0,644	-5,584
2859700,256	-8,366	-0,386	-5,752
2859705,139	-8,188	-0,446	-5,762
2859710,022	-8,069	-0,208	-5,772
2859714,905	-8,149	-0,426	-5,594
2859719,788	-7,941	-0,604	-5,634
2859724,670	-7,703	-0,663	-5,634
2859729,553	-7,802	-0,644	-5,386
2859734,436	-7,901	-0,634	-5,277
2859739,319	-8,069	-0,673	-4,970
2859744,202	-8,198	-0,644	-5,257
2859749,084	-8,604	-0,446	-4,436
2859753,967	-8,257	-1,020	-5,198
2859758,850	-8,020	-0,386	-4,851
2859763,733	-8,119	-0,287	-4,634
2859768,616	-7,990	-0,535	-4,960
2859773,499	-8,178	-0,594	-5,347
2859778,381	-8,257	-0,436	-5,426
2859783,264	-8,129	-0,218	-5,366
2859788,147	-8,040	-0,594	-5,158
2859793,030	-8,020	-0,584	-5,416
2859797,913	-8,020	-0,307	-5,554
2859802,795	-8,267	-0,733	-5,099
2859807,678	-8,297	-0,574	-4,941
2859812,561	-8,149	-0,782	-5,069
2859817,444	-7,980	-0,446	-4,832
2859822,327	-7,931	-0,515	-5,030
2859827,209	-7,980	-0,356	-5,059
2859832,092	-7,980	-0,297	-5,386
2859836,975	-11,861	2,663	-6,693
2859841,858	-8,911	-0,238	-7,238
2859846,741	-8,713	0,089	-5,416
2859851,624	-8,703	0,287	-5,337
2859856,506	-8,772	-0,307	-4,960
2859861,389	-8,347	-0,465	-4,980
2859866,272	-8,050	-0,416	-5,030
2859871,155	-7,980	-0,455	-5,010
2859876,038	-7,802	-0,426	-5,149
2859880,920	-7,802	-0,624	-5,050
2859885,803	-7,752	-0,574	-4,881
2859890,686	-7,812	-0,624	-4,901
2859895,569	-7,673	-0,653	-4,762
2859900,452	-7,673	-0,446	-4,673
2859905,334	-7,733	-0,475	-4,584
2859910,217	-7,812	-0,584	-4,515
2859915,100	-7,950	-0,485	-4,693
2859919,983	-7,931	-0,505	-4,881
2859924,866	-7,891	-0,772	-5,069
2859929,749	-7,851	-0,851	-5,050
2859934,631	-7,762	-0,881	-5,139
2859939,514	-7,832	-0,891	-5,069
2859944,397	-9,079	-1,228	-4,950
2859949,280	-8,228	0,317	-4,446
2859954,163	-7,604	-0,614	-5,099
2859959,045	-7,950	-0,624	-4,752
2859963,928	-8,079	-0,881	-4,842
2859968,811	-8,069	-1,178	-4,832
2859973,694	-7,901	-1,149	-4,713
2859978,577	-8,089	-1,020	-4,624
2859983,459	-7,970	-0,990	-4,683
2859988,342	-8,050	-1,010	-4,475
2859993,225	-7,931	0,119	-3,178
2859998,108	-7,931	-1,099	-3,624
2860002,991	-8,139	-1,020	-4,317
2860007,874	-8,020	-1,089	-5,129
2860012,756	-8,010	-1,099	-5,980
2860017,639	-8,129	-1,020	-5,396
2860022,522	-7,931	-1,020	-5,228
2860027,405	-8,158	-1,168	-4,970
2860032,288	-7,950	-0,931	-4,436
2860037,170	-8,178	-1,040	-4,307
2860042,053	-8,198	-0,980	-4,386
2860046,936	-8,059	-0,960	-4,228
2860051,819	-8,069	-0,990	-4,119
2860056,702	-8,198	-0,980	-4,198
2860061,584	-8,178	-1,040	-4,366
2860066,467	-8,238	-1,079	-4,386
2860071,350	-8,178	-0,901	-4,436
2860076,233	-8,228	-0,782	-4,624
2860081,116	-8,158	-0,851	-4,277
2860085,999	-8,050	-1,139	-4,446
2860090,881	-8,000	-0,950	-4,416
2860095,764	-8,198	-0,960	-4,406
2860100,647	-8,059	-0,921	-4,337
2860105,530	-8,188	-1,000	-4,347
2860110,413	-8,139	-0,960	-4,455
2860115,295	-8,050	-0,980	-4,426
2860120,178	-7,950	-1,020	-4,238
2860125,061	-8,168	-0,911	-4,099
2860129,944	-7,941	-1,248	-4,267
2860134,827	-8,089	-0,980	-4,129
2860139,709	-8,178	-0,980	-4,059
2860144,592	-8,366	-0,832	-4,495
2860149,475	-8,099	-1,178	-4,317
2860154,358	-8,109	-0,614	-3,842
2860159,241	-8,030	-0,446	-4,297
2860164,124	-7,941	-0,861	-4,277
2860169,006	-8,059	-0,990	-4,663
2860173,889	-7,881	-1,109	-3,465
2860178,772	-8,129	-1,040	-4,624
2860183,655	-8,050	-1,040	-4,901
2860188,538	-8,129	-1,218	-4,089
2860193,420	-8,158	-0,871	-4,337
2860198,303	-8,139	-0,901	-4,703
2860203,186	-8,079	-0,802	-4,337
2860208,069	-8,277	-0,842	-4,050
2860212,952	-8,040	-1,010	-4,119
2860217,834	-8,099	-0,911	-3,624
2860222,717	-8,228	-0,792	-4,455
2860227,600	-8,238	-1,099	-3,842
2860232,483	-8,059	-1,158	-4,010
2860237,366	-8,089	-1,050	-4,624
2860242,249	-8,158	-0,802	-4,545
2860247,131	-8,129	-1,040	-5,574
2860252,014	-8,099	-1,079	-4,980
2860256,897	-8,267	-0,762	-3,931
2860261,780	-8,446	-0,832	-4,515
2860266,663	-7,832	-0,990	-4,119
2860271,545	-7,901	-1,040	-4,545
2860276,428	-8,238	-1,000	-5,040
2860281,311	-8,079	-0,970	-4,634
2860286,194	-8,149	-0,990	-4,416
2860291,077	-8,149	-0,980	-4,089
2860295,959	-8,168	-1,267	-4,406
2860300,842	-8,109	-0,931	-4,406
2860305,725	-8,119	-0,792	-4,109
2860310,608	-8,079	-0,723	-3,792
2860315,491	-8,158	-0,901	-3,743
2860320,374	-8,079	-1,208	-4,168
2860325,256	-7,990	-1,030	-4,446
2860330,139	-8,178	-1,050	-4,307
2860335,022	-8,287	-1,109	-4,059
2860339,905	-8,050	-1,089	-4,010
2860344,788	-7,950	-1,059	-4,010
2860349,670	-8,119	-0,970	-4,069
2860354,553	-8,089	-1,020	-3,921
2860359,436	-8,069	-1,000	-4,040
2860364,319	-8,059	-0,891	-3,842
2860369,202	-8,149	-0,990	-4,069
2860374,084	-8,030	-0,921	-4,059
2860378,967	-9,931	3,436	4,119
2860383,850	-7,673	-2,446	-3,990
2860388,733	-7,376	-2,178	-5,337
2860393,616	-8,089	-1,059	-5,010
2860398,499	-8,040	-1,495	-5,168
2860403,381	-8,000	-1,099	-3,733
2860408,264	-8,069	-0,980	-3,723
2860413,147	-7,832	-1,059	-2,990
2860418,030	-8,208	-1,139	-4,129
2860422,913	-7,980	-0,941	-3,891
2860427,795	-8,000	-1,149	-3,911
2860432,678	-8,040	-1,158	-3,693
2860437,561	-8,079	-1,020	-3,822
2860442,444	-8,040	-1,059	-3,891
2860447,327	-8,129	-0,941	-3,802
2860452,209	-8,089	-0,931	-3,733
2860457,092	-8,089	-1,139	-3,931
2860461,975	-8,099	-1,040	-3,782
2860466,858	-8,030	-1,059	-3,743
2860471,741	-8,050	-0,931	-3,871
2860476,624	-8,030	-1,099	-3,812
2860481,506	-8,069	-1,139	-3,970
2860486,389	-8,129	-0,960	-3,782
2860491,272	-8,208	-0,960	-3,881
2860496,155	-8,149	-1,089	-3,772
2860501,038	-8,059	-1,149	-3,921
2860505,920	-8,099	-1,010	-3,941
2860510,803	-8,168	-1,000	-3,822
2860515,686	-8,129	-1,010	-3,822
2860520,569	-8,178	-1,059	-3,782
2860525,452	-8,059	-1,010	-3,960
2860530,334	-7,980	-1,089	-4,010
2860535,217	-8,000	-1,059	-3,871
2860540,100	-8,030	-0,822	-3,703
2860544,983	-7,980	-1,089	-3,802
2860549,866	-8,109	-1,079	-3,802
2860554,749	-8,040	-1,010	-3,693
2860559,631	-8,109	-1,000	-3,832
2860564,514	-7,980	-0,861	-3,812
2860569,397	-8,198	-0,861	-3,683
2860574,280	-8,069	-1,040	-3,861
2860579,163	-8,139	-0,891	-3,792
2860584,045	-8,020	-1,040	-3,832
2860588,928	-8,139	-1,030	-3,842
2860593,811	-8,099	-1,000	-3,693
2860598,694	-8,218	-1,030	-3,891
2860603,577	-8,188	-1,030	-3,871
2860608,459	-8,099	-1,050	-3,812
2860613,342	-8,040	-1,089	-3,743
2860618,225	-8,069	-1,089	-3,960
2860623,108	-8,079	-1,020	-3,931
2860627,991	-8,218	-1,119	-3,733
2860632,874	-8,069	-1,158	-3,802
2860637,756	-8,228	-1,030	-3,733
2860642,639	-8,089	-1,099	-3,851
2860647,522	-8,069	-0,980	-3,970
2860652,405	-8,188	-0,990	-3,931
2860657,288	-8,109	-1,089	-3,941
2860662,170	-8,109	-1,248	-3,921
2860667,053	-8,198	-1,129	-3,842
2860671,936	-8,218	-0,941	-3,851
2860676,819	-8,267	-0,990	-3,970
2860681,702	-8,040	-0,941	-3,733
2860686,584	-8,149	-1,030	-3,871
2860691,467	-8,089	-1,000	-3,931
2860696,350	-8,149	-1,020	-3,851
2860701,233	-8,139	-0,851	-4,030
2860706,116	-8,129	-0,970	-3,782
2860710,999	-8,119	-0,960	-3,842
2860715,881	-8,119	-0,941	-3,752
2860720,764	-8,158	-1,020	-3,911
2860725,647	-8,129	-0,881	-3,822
2860730,530	-8,089	-0,990	-3,772
2860735,413	-8,089	-1,109	-3,792
2860740,295	-8,059	-1,020	-3,802
2860745,178	-8,208	-1,109	-3,822
2860750,061	-7,960	-1,089	-4,020
2860754,944	-8,050	-1,000	-3,822
2860759,827	-8,149	-0,851	-3,772
2860764,709	-8,059	-0,950	-3,842
2860769,592	-8,059	-1,040	-4,317
2860774,475	-7,990	-0,980	-3,822
2860779,358	-8,168	-1,059	-3,921
2860784,241	-7,881	-0,832	-3,673
2860789,124	-8,010	-0,931	-3,851
2860794,006	-8,119	-1,030	-3,792
2860798,889	-7,970	-1,208	-3,297
2860803,772	-8,050	-1,040	-3,762
2860808,655	-8,158	-1,030	-3,822
2860813,538	-8,178	-0,921	-3,832
2860818,420	-8,059	-1,020	-3,634
2860823,303	-8,158	-1,089	-3,822
2860828,186	-8,020	-1,109	-3,802
2860833,069	-8,129	-1,000	-3,881
2860837,952	-8,030	-1,109	-3,960
2860842,834	-8,059	-1,020	-3,752
2860847,717	-8,040	-1,050	-4,040
2860852,600	-8,059	-0,980	-3,683
2860857,483	-8,059	-1,050	-3,673
2860862,366	-8,139	-1,059	-3,881
2860867,249	-8,119	-1,050	-3,713
2860872,131	-8,178	-0,990	-3,782
2860877,014	-7,931	-0,980	-3,911
2860881,897	-8,010	-1,129	-3,782
2860886,780	-8,139	-0,990	-3,970
2860891,663	-8,030	-1,030	-3,802
2860896,545	-8,040	-0,980	-4,020
2860901,428	-8,030	-1,129	-3,921
2860906,311	-8,149	-0,861	-3,822
2860911,194	-8,079	-0,901	-3,871
2860916,077	-8,089	-1,079	-3,901
2860920,959	-8,010	-1,119	-3,762
2860925,842	-8,069	-0,901	-3,752
2860930,725	-7,950	-0,960	-3,772
2860935,608	-8,059	-1,040	-3,881
2860940,491	-8,079	-1,168	-3,822
2860945,374	-8,079	-0,990	-3,881
2860950,256	-8,158	-0,990	-3,792
2860955,139	-8,139	-1,168	-3,782
2860960,022	-8,040	-1,000	-3,772
2860964,905	-8,059	-0,990	-3,901
2860969,788	-8,000	-1,089	-3,752
2860974,670	-8,000	-0,950	-3,733
2860979,553	-8,168	-1,069	-3,861
2860984,436	-7,990	-1,040	-3,782
2860989,319	-8,059	-0,921	-3,901
2860994,202	-8,158	-1,158	-3,733
2860999,084	-8,020	-1,119	-3,713
2861003,967	-7,990	-1,030	-3,723
2861008,850	-8,040	-0,970	-3,851
2861013,733	-8,168	-1,059	-3,792
2861018,616	-8,079	-0,911	-3,772
2861023,499	-8,040	-1,109	-3,842
2861028,381	-8,238	-1,139	-3,792
2861033,264	-8,139	-1,010	-3,851
2861038,147	-8,069	-1,089	-3,891
2861043,030	-8,000	-1,040	-3,832
2861047,913	-8,040	-0,941	-3,752
2861052,795	-8,178	-0,970	-3,594
2861057,678	-7,950	-0,891	-3,931
2861062,561	-7,921	-1,040	-3,772
2861067,444	-7,980	-1,000	-3,733
2861072,327	-8,168	-1,030	-3,871
2861077,209	-8,149	-0,980	-3,713
2861082,092	-8,248	-0,960	-3,772
2861086,975	-8,109	-1,069	-3,812
2861091,858	-8,089	-0,931	-3,871
2861096,741	-8,178	-1,059	-3,901
2861101,624	-8,050	-0,980	-3,792
2861106,506	-8,089	-0,931	-3,822
2861111,389	-8,129	-0,950	-3,871
2861116,272	-8,089	-1,059	-3,871
2861121,155	-8,139	-1,040	-3,723
2861126,038	-8,099	-1,040	-3,842
2861130,920	-8,119	-1,010	-3,743
2861135,803	-8,069	-1,079	-3,663
2861140,686	-7,980	-0,980	-3,792
2861145,569	-8,218	-1,069	-3,881
2861150,452	-8,287	-1,129	-3,842
2861155,334	-8,069	-0,980	-3,861
2861160,217	-8,149	-0,950	-3,782
2861165,100	-8,050	-0,970	-3,762
2861169,983	-8,099	-1,069	-3,723
2861174,866	-8,040	-0,941	-3,802
2861179,749	-8,089	-1,030	-3,871
2861184,631	-8,119	-0,990	-3,812
2861189,514	-8,050	-0,950	-3,743
2861194,397	-8,149	-0,980	-3,861
2861199,280	-8,158	-0,990	-3,822
2861204,163	-8,040	-1,059	-3,832
2861209,045	-8,099	-1,059	-3,703
2861213,928	-8,040	-0,941	-3,723
2861218,811	-8,178	-1,109	-3,752
2861223,694	-8,099	-0,960	-3,723
2861228,577	-8,119	-0,921	-3,743
2861233,459	-7,901	-0,980	-3,792
2861238,342	-8,020	-1,050	-3,851
2861243,225	-8,050	-1,129	-3,822
2861248,108	-8,168	-1,020	-3,782
2861252,991	-8,129	-1,050	-3,802
2861257,874	-8,069	-0,990	-3,871
2861262,756	-8,099	-1,069	-3,762
2861267,639	-7,950	-1,050	-3,861
2861272,522	-8,040	-1,010	-3,772
2861277,405	-7,970	-1,050	-3,891
2861282,288	-8,000	-1,139	-4,079
2861287,170	-8,139	-0,970	-3,545
2861292,053	-8,079	-0,901	-3,673
2861296,936	-8,178	-1,069	-3,901
2861301,819	-8,020	-1,020	-3,822
2861306,702	-8,228	-1,030	-3,792
2861311,584	-8,020	-1,109	-3,881
2861316,467	-8,030	-1,059	-3,713
2861321,350	-8,059	-1,020	-3,802
2861326,233	-8,020	-1,020	-3,941
2861331,116	-8,168	-1,020	-3,822
2861335,999	-8,000	-0,980	-3,792
2861340,881	-8,139	-1,089	-3,871
2861345,764	-8,099	-1,020	-3,762
2861350,647	-8,129	-1,119	-3,792
2861355,530	-8,158	-1,099	-3,891
2861360,413	-8,149	-0,970	-3,822
2861365,295	-8,188	-0,941	-3,723
2861370,178	-8,109	-0,802	-3,832
2861375,061	-8,376	-1,168	-3,505
2861379,944	-8,079	-1,030	-4,069
2861384,827	-8,069	-1,040	-3,743
2861389,709	-8,089	-0,950	-3,802
2861394,592	-8,129	-1,030	-3,683
2861399,475	-8,149	-0,881	-3,703
2861404,358	-8,069	-1,020	-3,644
2861409,241	-8,129	-0,832	-3,812
2861414,124	-8,267	-1,020	-3,782
2861419,006	-8,010	-1,069	-3,861
2861423,889	-7,545	-0,881	-3,861
2861428,772	-8,545	-1,238	-3,208
2861433,655	-7,782	-0,960	-3,990
2861438,538	-8,436	-0,703	-3,792
2861443,420	-7,911	-1,059	-3,802
2861448,303	-7,149	-0,980	-4,010
2861453,186	-7,941	-0,703	-4,327
2861458,069	-7,653	-0,743	-3,337
2861462,952	-7,891	-1,238	-4,010
2861467,834	-8,040	-1,139	-4,050
2861472,717	-8,089	-0,980	-3,802
2861477,600	-7,970	-0,980	-3,901
2861482,483	-8,040	-1,059	-3,871
2861487,366	-7,950	-1,010	-3,950
2861492,249	-8,149	-0,960	-3,802
2861497,131	-8,059	-1,040	-3,782
2861502,014	-8,109	-1,079	-3,733
2861506,897	-8,030	-0,911	-3,792
2861511,780	-8,050	-1,030	-3,782
2861516,663	-8,010	-1,000	-3,822
2861521,545	-8,089	-0,970	-3,743
2861526,428	-8,030	-1,069	-4,000
2861531,311	-8,109	-0,950	-3,772
2861536,194	-8,119	-1,040	-3,881
2861541,077	-8,069	-1,040	-3,861
2861545,959	-8,109	-0,980	-3,762
2861550,842	-8,129	-1,089	-3,733
2861555,725	-8,099	-0,911	-3,861
2861560,608	-8,099	-1,030	-3,762
2861565,491	-8,139	-1,040	-3,970
2861570,374	-8,030	-0,901	-3,881
2861575,256	-8,178	-1,099	-3,990
2861580,139	-8,109	-1,139	-3,673
2861585,022	-8,079	-1,099	-3,723
2861589,905	-8,267	-3,040	-4,475
2861594,788	-7,990	-0,188	-3,762
2861599,670	-8,030	-0,406	-3,713
2861604,553	-8,000	-1,099	-3,921
2861609,436	-8,000	-1,396	-3,891
2861614,319	-8,079	-1,277	-3,713
2861619,202	-8,119	-0,713	-4,040
2861624,084	-8,168	-1,079	-3,861
2861628,967	-8,079	-1,198	-3,782
2861633,850	-7,990	-1,079	-3,812
2861638,733	-7,960	-0,950	-3,792
2861643,616	-8,010	-0,901	-3,782
2861648,499	-8,020	-1,000	-3,931
2861653,381	-8,129	-1,158	-3,842
2861658,264	-8,099	-0,950	-3,931
2861663,147	-8,168	-1,000	-3,792
2861668,030	-8,050	-1,158	-3,871
2861672,913	-8,208	-1,069	-3,792
2861677,795	-8,040	-0,891	-3,881
2861682,678	-8,178	-0,941	-4,000
2861687,561	-8,099	-0,881	-3,941
2861692,444	-8,119	-1,050	-3,911
2861697,327	-8,069	-1,158	-3,624
2861702,209	-7,990	-1,099	-3,693
2861707,092	-7,960	-1,030	-3,733
2861711,975	-8,000	-0,842	-3,772
2861716,858	-7,931	-0,950	-3,990
2861721,741	-8,010	-0,901	-4,010
2861726,624	-8,149	-0,861	-4,010
2861731,506	-8,139	-0,911	-3,871
2861736,389	-8,139	-0,921	-3,752
2861741,272	-8,109	-1,089	-3,782
2861746,155	-8,050	-1,059	-3,782
2861751,038	-8,000	-1,099	-3,802
2861755,920	-8,069	-1,059	-3,851
2861760,803	-8,109	-0,980	-3,842
2861765,686	-8,069	-1,069	-3,891
2861770,569	-8,010	-1,040	-3,832
2861775,452	-8,010	-1,069	-3,871
2861780,334	-8,109	-0,990	-3,703
2861785,217	-8,168	-1,059	-3,723
2861790,100	-7,980	-0,990	-3,921
2861794,983	-8,188	-0,950	-3,822
2861799,866	-8,059	-1,099	-3,752
2861804,749	-8,020	-1,139	-3,792
2861809,631	-8,010	-1,040	-3,842
2861814,514	-8,366	-0,990	-3,871
2861819,397	-8,297	-1,010	-3,881
2861824,280	-8,079	-1,089	-3,980
2861829,163	-8,208	-0,980	-3,782
2861834,045	-8,079	-1,059	-3,822
2861838,928	-8,050	-0,970	-3,842
2861843,811	-8,109	-0,990	-3,881
2861848,694	-8,158	-0,960	-3,891
2861853,577	-8,000	-1,050	-3,812
2861858,459	-8,030	-1,050	-3,851
2861863,342	-8,089	-0,950	-3,752
2861868,225	-8,139	-1,059	-3,832
2861873,108	-7,950	-1,069	-3,743
2861877,991	-8,089	-1,030	-3,644
2861882,874	-8,059	-0,970	-3,752
2861887,756	-8,109	-1,079	-3,782
2861892,639	-8,030	-1,109	-3,911
2861897,522	-8,079	-1,020	-3,792
2861902,405	-8,050	-1,119	-3,772
2861907,288	-8,149	-1,030	-3,802
2861912,170	-8,069	-1,020	-3,881
2861917,053	-8,139	-1,059	-3,891
2861921,936	-8,139	-0,881	-3,822
2861926,819	-8,188	-1,030	-3,792
2861931,702	-8,020	-0,921	-3,792
2861936,584	-8,010	-1,020	-3,673
2861941,467	-8,000	-1,030	-3,743
2861946,350	-8,050	-1,010	-3,901
2861951,233	-8,139	-1,050	-3,564
2861956,116	-8,158	-1,099	-3,822
2861960,999	-8,040	-1,069	-3,842
2861965,881	-8,000	-0,980	-3,782
2861970,764	-8,099	-1,119	-3,921
2861975,647	-8,168	-1,020	-3,772
2861980,530	-8,149	-1,059	-3,802
2861985,413	-8,059	-0,970	-3,921
2861990,295	-8,198	-0,950	-3,792
2861995,178	-8,188	-1,079	-3,851
2862000,061	-8,465	-1,030	-3,119
2862004,944	-7,911	-1,257	-3,614
2862009,827	-8,089	-1,020	-3,931
2862014,709	-8,109	-1,099	-3,931
2862019,592	-8,248	-0,861	-3,891
2862024,475	-8,109	-0,980	-3,861
2862029,358	-8,050	-1,158	-3,812
2862034,241	-8,356	-0,950	-4,366
2862039,124	-8,158	-0,980	-3,921
2862044,006	-8,079	-1,069	-3,871
2862048,889	-8,099	-1,109	-4,149
2862053,772	-8,129	-1,069	-3,851
2862058,655	-8,040	-1,059	-3,723
2862063,538	-8,158	-0,931	-3,782
2862068,420	-7,990	-1,109	-3,851
2862073,303	-8,228	-1,139	-3,812
2862078,186	-8,099	-1,050	-3,871
2862083,069	-8,178	-0,990	-3,743
2862087,952	-8,089	-1,010	-3,881
2862092,834	-8,109	-1,030	-3,792
2862097,717	-8,129	-0,950	-3,842
2862102,600	-8,089	-1,059	-3,752
2862107,483	-8,040	-1,129	-3,842
2862112,366	-8,099	-0,980	-3,792
2862117,249	-7,960	-1,109	-3,782
2862122,131	-8,099	-0,891	-3,832
2862127,014	-8,149	-1,099	-3,792
2862131,897	-8,089	-0,960	-3,842
2862136,780	-8,050	-0,941	-3,891
2862141,663	-8,020	-1,119	-3,881
2862146,545	-8,099	-0,881	-3,782
2862151,428	-8,228	-1,000	-3,663
2862156,311	-8,149	-1,079	-3,792
2862161,194	-8,050	-0,970	-3,693
2862166,077	-8,099	-0,950	-3,851
2862170,959	-8,069	-1,069	-3,802
2862175,842	-8,059	-0,970	-3,941
2862180,725	-8,079	-0,822	-3,980
2862185,608	-8,089	-1,059	-4,020
2862190,491	-8,040	-0,970	-3,693
2862195,374	-8,040	-1,099	-3,861
2862200,256	-8,099	-1,010	-3,762
2862205,139	-8,020	-0,911	-3,990
2862210,022	-8,050	-1,059	-3,901
2862214,905	-8,218	-1,158	-3,832
2862219,788	-8,198	-0,970	-3,723
2862224,670	-8,040	-1,069	-3,663
2862229,553	-8,089	-1,059	-3,703
2862234,436	-8,030	-0,931	-3,832
2862239,319	-8,089	-0,921	-3,842
2862244,202	-8,129	-1,020	-3,931
2862249,084	-8,228	-1,099	-3,871
2862253,967	-8,040	-1,079	-3,941
2862258,850	-8,129	-1,099	-3,921
2862263,733	-8,050	-0,950	-3,921
2862268,616	-8,089	-1,050	-3,861
2862273,499	-8,109	-1,129	-3,792
2862278,381	-8,079	-1,069	-3,723
2862283,264	-7,990	-1,010	-3,931
2862288,147	-8,188	-0,980	-3,792
2862293,030	-8,050	-1,208	-3,901
2862297,913	-8,059	-1,010	-3,861
2862302,795	-8,198	-1,030	-3,822
2862307,678	-8,020	-1,000	-3,901
2862312,561	-8,218	-1,030	-3,842
2862317,444	-8,069	-0,891	-3,802
2862322,327	-8,178	-1,069	-3,881
2862327,209	-8,109	-1,050	-3,832
2862332,092	-8,139	-1,050	-3,871
2862336,975	-8,079	-1,030	-3,772
2862341,858	-8,079	-1,000	-3,931
2862346,741	-8,010	-1,050	-3,842
2862351,624	-8,119	-1,109	-3,752
2862356,506	-8,069	-0,792	-3,743
2862361,389	-8,109	-0,960	-3,673
2862366,272	-8,188	-0,950	-3,832
2862371,155	-8,050	-1,069	-3,842
2862376,038	-8,158	-1,059	-3,911
2862380,920	-8,069	-1,000	-3,822
2862385,803	-8,050	-1,030	-3,792
2862390,686	-8,119	-0,891	-3,832
2862395,569	-8,089	-0,970	-3,802
2862400,452	-8,020	-1,040	-3,782
2862405,334	-8,119	-1,010	-3,802
2862410,217	-8,119	-1,099	-3,812
2862415,100	-8,139	-1,030	-4,000
2862419,983	-8,168	-1,178	-3,911
2862424,866	-8,059	-1,040	-3,871
2862429,749	-8,000	-0,931	-4,020
2862434,631	-8,059	-1,010	-3,792
2862439,514	-8,079	-0,990	-3,802
2862444,397	-8,069	-0,921	-3,861
2862449,280	-8,168	-0,891	-3,851
2862454,163	-8,119	-1,099	-3,881
2862459,045	-8,168	-0,980	-3,713
2862463,928	-8,079	-1,020	-3,941
2862468,811	-8,030	-1,040	-3,812
2862473,694	-8,030	-1,000	-3,822
2862478,577	-8,079	-1,089	-3,950
2862483,459	-8,218	-1,069	-3,871
2862488,342	-8,059	-1,119	-3,851
2862493,225	-8,099	-1,040	-3,832
2862498,108	-8,198	-0,851	-3,851
2862502,991	-8,158	-1,050	-3,822
2862507,874	-8,158	-0,960	-4,069
2862512,756	-8,109	-1,069	-3,772
2862517,639	-8,069	-1,099	-3,980
2862522,522	-8,139	-0,891	-3,822
2862527,405	-8,119	-0,990	-3,960
2862532,288	-8,079	-0,980	-3,891
2862537,170	-8,089	-1,109	-3,812
2862542,053	-8,059	-1,059	-3,851
2862546,936	-8,119	-1,059	-3,950
2862551,819	-8,188	-1,149	-3,842
2862556,702	-8,099	-1,030	-3,842
2862561,584	-8,109	-0,970	-3,861
2862566,467	-8,050	-1,030	-3,881
2862571,350	-8,069	-0,960	-3,644
2862576,233	-7,960	-1,000	-3,960
2862581,116	-8,129	-0,851	-3,921
2862585,999	-8,050	-0,990	-3,832
2862590,881	-8,119	-0,960	-3,772
2862595,764	-8,089	-1,000	-3,931
2862600,647	-8,040	-1,010	-3,752
2862605,530	-8,178	-1,059	-3,802
2862610,413	-8,099	-0,990	-3,950
2862615,295	-8,030	-1,020	-3,842
2862620,178	-8,149	-1,079	-3,832
2862625,061	-8,020	-1,178	-3,723
2862629,944	-7,861	-0,782	-3,604
2862634,827	-8,158	-1,050	-3,980
2862639,709	-8,129	-1,010	-3,822
2862644,592	-8,109	-1,218	-3,881
2862649,475	-8,059	-0,960	-3,812
2862654,358	-7,990	-0,990	-3,891
2862659,241	-7,941	-1,139	-3,733
2862664,124	-8,079	-0,970	-3,891
2862669,006	-8,139	-1,079	-3,891
2862673,889	-7,871	-1,010	-4,020
2862678,772	-7,931	-1,129	-3,901
2862683,655	-8,030	-0,911	-3,832
2862688,538	-8,129	-1,030	-3,931
2862693,420	-8,158	-1,050	-3,921
2862698,303	-8,168	-1,010	-3,970
2862703,186	-8,119	-1,069	-3,861
2862708,069	-8,119	-1,030	-3,891
2862712,952	-7,990	-1,069	-3,782
2862717,834	-8,079	-0,881	-3,871
2862722,717	-8,069	-0,941	-3,931
2862727,600	-8,119	-0,941	-3,871
2862732,483	-8,040	-0,970	-3,891
2862737,366	-8,069	-1,020	-3,832
2862742,249	-8,129	-0,980	-3,881
2862747,131	-8,069	-1,050	-3,851
2862752,014	-8,129	-1,020	-3,842
2862756,897	-8,089	-1,109	-3,802
2862761,780	-7,990	-0,881	-3,772
2862766,663	-8,089	-1,030	-3,941
2862771,545	-8,099	-0,960	-3,901
2862776,428	-8,228	-1,020	-3,762
2862781,311	-7,941	-1,040	-3,723
2862786,194	-8,139	-0,941	-3,921
2862791,077	-8,020	-0,941	-3,891
2862795,959	-8,178	-0,911	-3,762
2862800,842	-8,129	-0,960	-3,842
2862805,725	-8,129	-0,861	-3,812
2862810,608	-8,069	-0,980	-3,871
2862815,491	-8,069	-0,970	-3,832
2862820,374	-8,030	-1,089	-3,891
2862825,256	-8,059	-1,000	-3,851
2862830,139	-8,119	-0,960	-4,000
2862835,022	-8,178	-0,842	-3,812
2862839,905	-8,198	-0,970	-3,891
2862844,788	-8,030	-1,059	-3,802
2862849,670	-7,970	-1,030	-3,832
2862854,553	-8,050	-0,980	-3,950
2862859,436	-8,139	-1,168	-3,891
2862864,319	-8,089	-1,010	-3,822
2862869,202	-8,059	-1,000	-3,802
2862874,084	-8,059	-0,980	-3,941
2862878,967	-8,050	-1,158	-3,980
2862883,850	-8,188	-1,099	-3,733
2862888,733	-8,139	-1,040	-3,802
2862893,616	-8,158	-1,079	-3,881
2862898,499	-8,059	-1,089	-3,703
2862903,381	-8,069	-1,059	-3,713
2862908,264	-7,960	-0,931	-3,851
2862913,147	-8,020	-0,911	-3,851
2862918,030	-8,089	-1,010	-3,812
2862922,913	-8,208	-0,980	-3,911
2862927,795	-8,208	-1,030	-3,970
2862932,678	-8,119	-0,950	-3,950
2862937,561	-8,040	-1,030	-3,881
2862942,444	-8,238	-1,000	-3,802
2862947,327	-8,119	-1,059	-3,842
2862952,209	-8,158	-0,931	-3,812
2862957,092	-8,149	-1,069	-3,881
2862961,975	-8,059	-1,139	-3,822
2862966,858	-8,099	-1,040	-3,871
2862971,741	-8,149	-1,099	-3,683
2862976,624	-8,198	-0,950	-3,832
2862981,506	-8,228	-1,020	-3,812
2862986,389	-8,000	-0,931	-4,000
2862991,272	-8,050	-0,970	-3,822
2862996,155	-8,238	-1,030	-3,960
2863001,038	-8,188	-0,921	-3,891
2863005,920	-8,059	-1,089	-3,762
2863010,803	-8,069	-1,119	-3,782
2863015,686	-8,010	-0,970	-3,832
2863020,569	-8,050	-0,921	-3,822
2863025,452	-8,208	-1,000	-3,792
2863030,334	-8,188	-1,089	-3,772
2863035,217	-8,059	-1,000	-3,911
2863040,100	-8,129	-1,050	-3,960
2863044,983	-8,089	-0,911	-3,822
2863049,866	-8,000	-1,030	-4,000
2863054,749	-8,000	-0,950	-3,683
2863059,631	-8,139	-1,020	-3,782
2863064,514	-8,069	-1,079	-3,812
2863069,397	-8,149	-0,911	-3,921
2863074,280	-8,119	-0,980	-3,911
2863079,163	-8,129	-0,881	-3,772
2863084,045	-8,079	-0,950	-3,842
2863088,928	-8,149	-0,901	-3,931
2863093,811	-8,050	-0,941	-3,861
2863098,694	-8,267	-1,059	-3,881
2863103,577	-8,129	-0,891	-3,891
2863108,459	-8,198	-0,980	-3,792
2863113,342	-8,089	-1,020	-3,861
2863118,225	-8,119	-1,050	-3,792
2863123,108	-8,168	-1,010	-3,733
2863127,991	-8,129	-1,020	-3,861
2863132,874	-8,040	-1,178	-3,871
2863137,756	-8,139	-0,970	-3,743
2863142,639	-8,040	-0,970	-3,772
2863147,522	-8,040	-0,950	-3,733
2863152,405	-8,099	-0,990	-3,950
2863157,288	-8,139	-0,861	-3,842
2863162,170	-8,069	-1,099	-3,723
2863167,053	-8,050	-1,059	-3,901
2863171,936	-8,089	-1,040	-3,921
2863176,819	-8,178	-1,139	-3,871
2863181,702	-8,109	-0,931	-3,881
2863186,584	-8,099	-1,050	-3,851
2863191,467	-8,129	-1,010	-3,842
2863196,350	-8,208	-1,010	-3,871
2863201,233	-8,089	-1,010	-3,792
2863206,116	-8,030	-0,950	-3,802
2863210,999	-8,059	-0,941	-3,891
2863215,881	-8,099	-1,198	-3,792
2863220,764	-8,089	-1,040	-3,614
2863225,647	-8,119	-1,040	-3,802
2863230,530	-8,168	-0,970	-3,950
2863235,413	-8,040	-1,050	-3,812
2863240,295	-8,099	-1,030	-3,941
2863245,178	-8,208	-1,010	-3,851
2863250,061	-8,020	-1,069	-3,644
2863254,944	-8,129	-1,248	-4,050
2863259,827	-8,198	-1,000	-3,861
2863264,709	-8,119	-0,970	-3,743
2863269,592	-8,218	-1,158	-3,842
2863274,475	-7,881	-0,782	-3,901
2863279,358	-8,069	-0,832	-4,396
2863284,241	-7,812	-1,050	-4,069
2863289,124	-8,168	-1,030	-3,871
2863294,006	-8,089	-0,970	-3,733
2863298,889	-8,248	-1,109	-3,782
2863303,772	-7,960	-0,960	-3,802
2863308,655	-7,941	-0,990	-3,911
2863313,538	-8,059	-0,881	-3,901
2863318,420	-8,119	-0,901	-3,752
2863323,303	-8,119	-1,069	-3,703
2863328,186	-8,050	-0,960	-3,723
2863333,069	-8,020	-0,990	-3,891
2863337,952	-8,059	-0,990	-3,772
2863342,834	-8,099	-1,089	-3,782
2863347,717	-8,030	-0,970	-3,832
2863352,600	-8,208	-1,099	-3,881
2863357,483	-8,099	-1,030	-3,851
2863362,366	-8,228	-1,020	-3,703
2863367,249	-7,980	-0,980	-3,832
2863372,131	-8,099	-1,109	-3,832
2863377,014	-8,139	-0,950	-3,802
2863381,897	-7,911	-1,040	-3,851
2863386,780	-8,069	-1,020	-3,733
2863391,663	-8,099	-0,901	-3,792
2863396,545	-8,000	-0,960	-3,762
2863401,428	-8,129	-1,020	-3,683
2863406,311	-8,020	-1,010	-3,990
2863411,194	-8,168	-1,010	-3,911
2863416,077	-8,099	-0,970	-3,881
2863420,959	-8,119	-1,059	-3,960
2863425,842	-8,010	-1,079	-3,891
2863430,725	-8,089	-1,000	-3,802
2863435,608	-8,050	-0,990	-3,861
2863440,491	-8,109	-1,050	-3,762
2863445,374	-8,040	-0,931	-3,792
2863450,256	-8,000	-0,980	-3,931
2863455,139	-8,109	-0,911	-3,802
2863460,022	-8,089	-1,020	-3,792
2863464,905	-8,109	-1,178	-3,980
2863469,788	-8,109	-0,891	-3,822
2863474,670	-8,099	-0,980	-3,901
2863479,553	-8,089	-1,089	-3,911
2863484,436	-8,040	-1,079	-3,851
2863489,319	-8,119	-1,010	-4,010
2863494,202	-8,030	-1,030	-3,762
2863499,084	-8,069	-1,000	-3,743
2863503,967	-8,109	-1,059	-4,000
2863508,850	-8,059	-1,059	-3,851
2863513,733	-8,069	-1,040	-3,802
2863518,616	-8,059	-1,158	-3,733
2863523,499	-8,208	-1,069	-3,832
2863528,381	-8,158	-0,970	-3,851
2863533,264	-8,050	-1,040	-3,871
2863538,147	-8,178	-0,950	-4,010
2863543,030	-8,089	-0,970	-3,941
2863547,913	-8,208	-0,980	-3,901
2863552,795	-8,020	-1,030	-3,881
2863557,678	-8,218	-0,931	-3,832
2863562,561	-8,119	-1,099	-3,772
2863567,444	-8,099	-1,069	-3,743
2863572,327	-8,069	-0,950	-3,822
2863577,209	-8,040	-0,960	-3,881
2863582,092	-8,119	-1,099	-3,792
2863586,975	-8,149	-0,941	-3,673
2863591,858	-8,228	-0,960	-3,832
2863596,741	-8,109	-0,911	-3,970
2863601,624	-8,050	-1,089	-3,931
2863606,506	-8,149	-1,069	-3,822
2863611,389	-8,158	-1,079	-3,941
2863616,272	-7,990	-0,960	-3,782
2863621,155	-7,960	-1,020	-3,812
2863626,038	-8,198	-0,990	-3,703
2863630,920	-8,050	-0,941	-3,842
2863635,803	-8,119	-0,921	-3,921
2863640,686	-8,139	-1,119	-3,772
2863645,569	-7,990	-0,941	-3,772
2863650,452	-7,931	-0,970	-3,812
2863655,334	-8,040	-0,960	-3,832
2863660,217	-8,198	-1,010	-3,990
2863665,100	-8,158	-0,990	-3,723
2863669,983	-7,931	-0,990	-3,772
2863674,866	-7,990	-1,119	-3,752
2863679,749	-8,099	-0,871	-3,950
2863684,631	-8,109	-1,040	-3,871
2863689,514	-8,099	-1,059	-3,812
2863694,397	-8,158	-0,911	-3,911
2863699,280	-8,030	-1,109	-3,911
2863704,163	-8,000	-1,040	-3,970
2863709,045	-8,040	-1,089	-3,842
2863713,928	-8,089	-0,990	-3,723
2863718,811	-8,188	-1,050	-3,812
2863723,694	-8,059	-1,020	-3,842
2863728,577	-8,139	-1,000	-3,911
2863733,459	-8,119	-1,010	-3,891
2863738,342	-8,079	-1,089	-3,743
2863743,225	-8,149	-1,099	-3,842
2863748,108	-8,059	-1,040	-3,901
2863752,991	-8,277	-1,059	-3,970
2863757,874	-8,129	-0,990	-3,782
2863762,756	-8,020	-1,020	-3,832
2863767,639	-8,119	-0,921	-3,891
2863772,522	-8,109	-1,089	-3,802
2863777,405	-8,178	-0,931	-3,842
2863782,288	-8,099	-1,069	-3,762
2863787,170	-8,119	-1,030	-3,752
2863792,053	-8,079	-1,010	-3,782
2863796,936	-8,059	-0,950	-3,762
2863801,819	-8,059	-0,931	-3,941
2863806,702	-8,069	-0,762	-3,653
2863811,584	-8,109	-1,000	-4,099
2863816,467	-8,099	-0,871	-3,861
2863821,350	-8,069	-1,000	-3,792
2863826,233	-8,158	-1,050	-3,861
2863831,116	-8,277	-1,010	-3,762
2863835,999	-8,178	-0,881	-3,941
2863840,881	-8,248	-1,099	-3,822
2863845,764	-8,178	-1,109	-3,881
2863850,647	-8,109	-1,020	-3,911
2863855,530	-8,030	-1,129	-3,832
2863860,413	-8,139	-0,941	-3,871
2863865,295	-8,129	-1,000	-3,842
2863870,178	-8,040	-0,921	-3,822
2863875,061	-7,762	-1,218	-4,109
2863879,944	-7,980	-1,030	-4,030
2863884,827	-8,010	-1,000	-3,891
2863889,709	-8,020	-0,980	-3,851
2863894,592	-8,366	-0,703	-3,901
2863899,475	-7,970	-0,931	-3,832
2863904,358	-8,139	-1,119	-3,881
2863909,241	-7,901	-0,911	-3,683
2863914,124	-8,030	-0,990	-3,733
2863919,006	-8,010	-1,059	-3,861
2863923,889	-7,752	-1,129	-4,188
2863928,772	-8,149	-1,000	-3,921
2863933,655	-8,149	-1,079	-3,941
2863938,538	-7,990	-1,010	-3,861
2863943,420	-8,040	-1,050	-3,931
2863948,303	-8,109	-1,079	-3,782
2863953,186	-8,059	-1,099	-3,990
2863958,069	-8,218	-0,901	-3,743
2863962,952	-8,149	-0,960	-3,891
2863967,834	-8,188	-1,020	-3,782
2863972,717	-7,980	-0,921	-3,693
2863977,600	-8,030	-0,950	-3,891
2863982,483	-8,119	-1,020	-3,842
2863987,366	-8,079	-0,911	-3,891
2863992,249	-8,099	-0,871	-3,851
2863997,131	-8,158	-1,020	-3,911
2864002,014	-8,188	-1,030	-3,881
2864006,897	-8,089	-0,970	-3,713
2864011,780	-7,950	-0,960	-3,723
2864016,663	-8,059	-1,000	-3,842
2864021,545	-8,050	-0,970	-3,673
2864026,428	-8,168	-0,931	-3,842
2864031,311	-8,099	-1,089	-3,891
2864036,194	-8,119	-0,980	-3,792
2864041,077	-7,921	-0,980	-3,861
2864045,959	-8,139	-1,030	-3,822
2864050,842	-7,980	-0,970	-3,752
2864055,725	-8,050	-1,059	-3,911
2864060,608	-8,059	-1,000	-3,752
2864065,491	-8,149	-1,059	-4,000
2864070,374	-8,000	-1,010	-3,901
2864075,256	-8,040	-0,970	-3,881
2864080,139	-8,079	-1,069	-3,861
2864085,022	-8,139	-1,000	-3,792
2864089,905	-8,208	-1,059	-3,950
2864094,788	-8,129	-1,119	-3,851
2864099,670	-8,059	-1,010	-3,762
2864104,553	-8,069	-1,020	-3,990
2864109,436	-8,109	-1,050	-3,851
2864114,319	-8,109	-0,941	-3,921
2864119,202	-8,079	-1,059	-3,822
2864124,084	-8,277	-0,990	-3,832
2864128,967	-8,178	-0,901	-3,851
2864133,850	-8,099	-0,861	-3,792
2864138,733	-8,149	-1,119	-3,752
2864143,616	-8,069	-1,139	-3,703
2864148,499	-8,099	-0,921	-3,950
2864153,381	-8,218	-0,960	-3,941
2864158,264	-8,149	-1,079	-3,842
2864163,147	-8,178	-1,040	-3,842
2864168,030	-8,149	-0,990	-3,792
2864172,913	-8,050	-1,040	-3,822
2864177,795	-8,010	-0,941	-3,772
2864182,678	-7,990	-1,020	-3,970
2864187,561	-8,109	-1,109	-3,802
2864192,444	-8,109	-0,970	-3,990
2864197,327	-8,069	-1,040	-3,921
2864202,209	-8,119	-0,851	-3,921
2864207,092	-8,257	-1,040	-3,980
2864211,975	-8,129	-0,851	-3,881
2864216,858	-8,149	-1,000	-3,802
2864221,741	-8,030	-0,851	-3,851
2864226,624	-8,168	-1,109	-3,792
2864231,506	-8,069	-0,990	-3,851
2864236,389	-8,040	-0,950	-3,832
2864241,272	-8,069	-0,921	-3,901
2864246,155	-8,149	-0,901	-3,891
2864251,038	-8,089	-1,050	-3,832
2864255,920	-8,099	-0,980	-3,921
2864260,803	-8,109	-1,109	-3,851
2864265,686	-8,158	-0,980	-3,842
2864270,569	-7,950	-0,921	-3,891
2864275,452	-8,059	-1,119	-3,911
2864280,334	-8,099	-0,911	-3,891
2864285,217	-7,911	-0,861	-3,921
2864290,100	-8,178	-1,030	-3,911
2864294,983	-8,040	-0,950	-3,911
2864299,866	-8,139	-0,960	-3,851
2864304,749	-8,218	-1,079	-3,792
2864309,631	-8,079	-1,059	-3,822
2864314,514	-8,050	-1,010	-3,842
2864319,397	-8,010	-1,059	-3,851
2864324,280	-8,228	-1,020	-3,901
2864329,163	-8,050	-0,990	-3,832
2864334,045	-8,089	-0,881	-3,921
2864338,928	-8,238	-1,020	-3,802
2864343,811	-8,040	-0,931	-3,802
2864348,694	-8,089	-1,030	-3,851
2864353,577	-8,129	-1,050	-3,941
2864358,459	-8,188	-1,020	-3,822
2864363,342	-8,149	-1,069	-3,812
2864368,225	-8,050	-1,030	-3,842
2864373,108	-8,158	-1,030	-3,911
2864377,991	-7,980	-0,970	-3,842
2864382,874	-8,030	-1,020	-3,762
2864387,756	-8,030	-1,040	-3,931
2864392,639	-8,109	-1,059	-3,911
2864397,522	-8,158	-1,010	-3,713
2864402,405	-8,059	-1,198	-3,901
2864407,288	-8,119	-1,059	-3,802
2864412,170	-7,941	-1,030	-3,931
2864417,053	-8,069	-0,980	-3,822
2864421,936	-8,158	-0,990	-3,931
2864426,819	-7,980	-1,050	-3,792
2864431,702	-8,109	-1,010	-3,941
2864436,584	-8,149	-1,069	-3,861
2864441,467	-8,010	-0,980	-3,901
2864446,350	-8,129	-1,079	-3,762
2864451,233	-7,990	-1,050	-3,802
2864456,116	-8,099	-1,079	-3,772
2864460,999	-8,099	-1,198	-3,842
2864465,881	-8,050	-0,822	-3,822
2864470,764	-8,139	-1,020	-3,812
2864475,647	-8,079	-1,089	-3,802
2864480,530	-8,109	-0,891	-3,911
2864485,413	-8,109	-0,990	-3,822
2864490,295	-8,099	-0,891	-3,772
2864495,178	-7,970	-1,158	-3,901
2864500,061	-8,188	-1,297	-3,871
2864504,944	-7,762	-0,525	-3,644
2864509,827	-8,208	-0,990	-3,980
2864514,709	-8,010	-0,970	-3,822
2864519,592	-8,396	-0,881	-3,950
2864524,475	-8,000	-0,941	-3,990
2864529,358	-7,960	-0,960	-3,762
2864534,241	-8,545	-1,218	-3,634
2864539,124	-8,149	-1,059	-3,802
2864544,006	-7,960	-0,990	-3,842
2864548,889	-7,911	-1,010	-4,010
2864553,772	-8,297	-1,020	-3,921
2864558,655	-8,129	-0,990	-3,812
2864563,538	-8,238	-1,010	-3,921
2864568,420	-7,941	-1,040	-3,832
2864573,303	-8,158	-0,901	-3,743
2864578,186	-8,129	-1,149	-3,891
2864583,069	-8,158	-1,020	-3,713
2864587,952	-8,040	-1,089	-3,881
2864592,834	-8,139	-0,881	-3,871
2864597,717	-8,109	-1,010	-3,772
2864602,600	-7,980	-0,960	-3,861
2864607,483	-8,267	-0,911	-4,050
2864612,366	-8,069	-1,089	-3,802
2864617,249	-8,168	-0,941	-3,743
2864622,131	-8,129	-1,000	-3,842
2864627,014	-8,129	-1,020	-3,921
2864631,897	-8,129	-0,950	-4,010
2864636,780	-8,059	-1,069	-3,891
2864641,663	-8,139	-0,911	-3,891
2864646,545	-8,248	-0,990	-3,931
2864651,428	-8,099	-0,921	-3,693
2864656,311	-8,139	-1,089	-3,901
2864661,194	-8,109	-0,980	-3,752
2864666,077	-8,089	-0,891	-3,911
2864670,959	-8,158	-1,020	-3,941
2864675,842	-8,119	-1,020	-3,842
2864680,725	-8,129	-1,040	-3,743
2864685,608	-7,980	-0,980	-3,911
2864690,491	-8,089	-1,030	-3,861
2864695,374	-8,119	-0,970	-3,842
2864700,256	-7,970	-0,980	-3,832
2864705,139	-7,990	-0,931	-3,832
2864710,022	-8,010	-1,040	-3,911
2864714,905	-7,950	-1,050	-3,901
2864719,788	-8,188	-0,990	-3,921
2864724,670	-8,069	-1,158	-3,792
2864729,553	-8,069	-1,050	-3,653
2864734,436	-7,960	-1,129	-3,733
2864739,319	-7,931	-1,020	-3,990
2864744,202	-8,178	-1,069	-3,931
2864749,084	-8,139	-1,069	-3,802
2864753,967	-8,000	-1,099	-3,921
2864758,850	-8,129	-0,911	-3,752
2864763,733	-7,970	-0,980	-3,881
2864768,616	-8,079	-1,089	-3,743
2864773,499	-7,931	-0,970	-3,782
2864778,381	-8,149	-1,079	-3,644
2864783,264	-8,149	-1,099	-3,832
2864788,147	-8,050	-0,851	-3,762
2864793,030	-8,099	-1,010	-3,931
2864797,913	-8,158	-0,970	-3,663
2864802,795	-7,980	-0,980	-3,842
2864807,678	-8,050	-1,099	-3,723
2864812,561	-8,149	-0,950	-3,762
2864817,444	-8,109	-1,050	-3,762
2864822,327	-8,030	-1,069	-3,891
2864827,209	-8,158	-1,020	-3,812
2864832,092	-8,158	-0,941	-3,832
2864836,975	-8,050	-1,050	-3,822
2864841,858	-8,119	-0,980	-3,812
2864846,741	-8,059	-1,030	-3,871
2864851,624	-8,168	-0,970	-3,911
2864856,506	-8,218	-0,911	-3,941
2864861,389	-8,228	-0,911	-3,911
2864866,272	-8,129	-0,990	-3,881
2864871,155	-8,099	-0,941	-3,990
2864876,038	-8,069	-1,030	-3,861
2864880,920	-8,178	-1,030	-3,861
2864885,803	-8,020	-1,010	-3,762
2864890,686	-8,010	-1,158	-3,851
2864895,569	-8,059	-1,089	-3,931
2864900,452	-8,158	-0,901	-4,079
2864905,334	-7,980	-1,079	-3,386
2864910,217	-8,188	-0,960	-3,901
2864915,100	-8,109	-1,000	-3,802
2864919,983	-8,139	-1,158	-3,792
2864924,866	-8,030	-0,881	-3,911
2864929,749	-8,188	-1,109	-3,871
2864934,631	-8,109	-1,139	-3,772
2864939,514	-7,960	-0,891	-3,871
2864944,397	-8,010	-1,099	-3,703
2864949,280	-8,119	-1,010	-3,782
2864954,163	-8,208	-0,911	-3,861
2864959,045	-8,119	-1,040	-3,881
2864963,928	-8,030	-1,000	-3,851
2864968,811	-8,158	-1,059	-3,970
2864973,694	-8,079	-0,861	-3,891
2864978,577	-8,079	-0,901	-3,673
2864983,459	-8,089	-1,119	-3,812
2864988,342	-8,030	-0,941	-3,802
2864993,225	-8,158	-0,970	-3,752
2864998,108	-8,119	-1,089	-3,871
2865002,991	-8,109	-1,020	-3,901
2865007,874	-8,109	-1,059	-3,832
2865012,756	-8,099	-1,079	-3,752
2865017,639	-8,129	-0,950	-3,891
2865022,522	-8,109	-0,950	-3,851
2865027,405	-8,069	-0,921	-3,693
2865032,288	-8,059	-1,079	-3,960
2865037,170	-8,079	-1,099	-3,752
2865042,053	-7,832	-1,188	-3,772
2865046,936	-8,168	-1,119	-3,812
2865051,819	-8,050	-1,188	-3,792
2865056,702	-8,000	-1,089	-3,673
2865061,584	-8,020	-1,119	-3,931
2865066,467	-8,079	-1,198	-4,000
2865071,350	-8,178	-0,990	-3,802
2865076,233	-8,059	-1,020	-3,921
2865081,116	-8,079	-0,941	-3,733
2865085,999	-8,079	-0,891	-3,861
2865090,881	-8,050	-0,980	-3,851
2865095,764	-8,119	-1,000	-3,851
2865100,647	-8,149	-1,020	-3,871
2865105,530	-8,109	-1,020	-3,970
2865110,413	-8,139	-1,010	-3,881
2865115,295	-8,030	-1,000	-3,842
2865120,178	-8,079	-0,921	-3,762
2865125,061	-8,079	-0,812	-3,842
2865129,944	-8,129	-0,822	-4,218
2865134,827	-8,109	-1,139	-3,960
2865139,709	-8,238	-1,109	-3,822
2865144,592	-7,901	-0,960	-4,000
2865149,475	-8,050	-0,851	-3,802
2865154,358	-8,050	-0,941	-3,881
2865159,241	-8,168	-0,792	-4,069
2865164,124	-8,040	-0,990	-3,762
2865169,006	-8,099	-1,050	-3,802
2865173,889	-7,921	-0,970	-3,663
2865178,772	-8,059	-0,950	-3,644
2865183,655	-8,010	-1,020	-3,683
2865188,538	-8,069	-0,931	-3,931
2865193,420	-8,178	-1,010	-3,941
2865198,303	-8,178	-1,069	-3,891
2865203,186	-8,020	-0,931	-3,861
2865208,069	-8,079	-1,119	-3,673
2865212,952	-8,109	-1,089	-3,832
2865217,834	-8,040	-0,941	-3,802
2865222,717	-8,050	-1,079	-3,911
2865227,600	-7,990	-1,099	-3,782
2865232,483	-8,099	-0,980	-3,822
2865237,366	-8,158	-0,970	-3,723
2865242,249	-8,099	-1,050	-3,931
2865247,131	-8,119	-0,792	-3,832
2865252,014	-8,059	-1,069	-3,881
2865256,897	-8,228	-0,871	-3,911
2865261,780	-8,020	-0,861	-3,822
2865266,663	-7,941	-1,030	-3,901
2865271,545	-8,158	-1,020	-3,881
2865276,428	-8,139	-1,000	-4,069
2865281,311	-8,119	-0,970	-3,802
2865286,194	-8,198	-0,941	-4,030
2865291,077	-7,980	-0,950	-3,733
2865295,959	-8,099	-0,990	-3,614
2865300,842	-8,099	-1,069	-3,772
2865305,725	-8,059	-0,990	-3,772
2865310,608	-8,079	-1,040	-4,000
2865315,491	-8,109	-1,059	-3,703
2865320,374	-8,109	-1,040	-3,812
2865325,256	-8,109	-0,960	-3,782
2865330,139	-8,050	-1,178	-3,851
2865335,022	-8,188	-0,901	-3,851
2865339,905	-8,119	-1,069	-3,832
2865344,788	-8,020	-0,752	-3,752
2865349,670	-8,139	-0,980	-3,733
2865354,553	-7,970	-1,050	-3,842
2865359,436	-8,149	-0,950	-3,812
2865364,319	-8,050	-1,030	-3,832
2865369,202	-8,099	-1,158	-3,752
2865374,084	-7,941	-0,980	-3,832
2865378,967	-8,050	-0,990	-3,861
2865383,850	-8,050	-1,109	-3,663
2865388,733	-8,030	-1,089	-3,713
2865393,616	-7,990	-1,000	-3,881
2865398,499	-8,218	-1,079	-3,762
2865403,381	-7,980	-0,960	-3,822
2865408,264	-8,079	-0,970	-3,941
2865413,147	-8,040	-0,911	-3,911
2865418,030	-8,059	-1,059	-3,881
2865422,913	-8,089	-1,030	-3,871
2865427,795	-8,069	-0,842	-3,782
2865432,678	-8,059	-0,970	-3,822
2865437,561	-8,178	-0,941	-3,842
2865442,444	-8,059	-1,139	-3,762
2865447,327	-8,050	-1,139	-3,772
2865452,209	-8,079	-0,941	-3,861
2865457,092	-8,149	-1,000	-3,812
2865461,975	-8,208	-1,139	-3,861
2865466,858	-8,089	-0,980	-3,782
2865471,741	-8,010	-1,099	-3,832
2865476,624	-8,139	-0,931	-3,891
2865481,506	-8,099	-1,129	-3,693
2865486,389	-8,040	-1,050	-3,921
2865491,272	-8,059	-1,000	-3,901
2865496,155	-7,950	-0,990	-3,931
2865501,038	-8,109	-1,079	-3,921
2865505,920	-8,020	-0,950	-3,881
2865510,803	-8,129	-1,089	-3,851
2865515,686	-8,079	-1,050	-3,802
2865520,569	-8,109	-1,000	-3,911
2865525,452	-8,149	-0,970	-3,901
2865530,334	-7,990	-1,010	-3,861
2865535,217	-8,109	-0,931	-3,832
2865540,100	-8,139	-1,069	-3,802
2865544,983	-8,069	-1,020	-3,743
2865549,866	-8,059	-0,960	-3,822
2865554,749	-8,188	-1,020	-3,762
2865559,631	-8,059	-0,941	-3,713
2865564,514	-8,079	-1,079	-3,832
2865569,397	-8,059	-0,970	-3,901
2865574,280	-8,030	-0,950	-3,743
2865579,163	-8,040	-1,089	-3,782
2865584,045	-8,139	-1,059	-3,762
2865588,928	-7,960	-0,970	-3,832
2865593,811	-8,168	-1,109	-3,881
2865598,694	-8,178	-0,931	-3,792
2865603,577	-8,079	-0,990	-3,851
2865608,459	-8,158	-0,901	-3,881
2865613,342	-8,228	-1,030	-3,851
2865618,225	-8,158	-1,050	-3,703
2865623,108	-8,010	-1,050	-3,832
2865627,991	-8,119	-1,050	-3,871
2865632,874	-8,139	-1,099	-3,644
2865637,756	-8,030	-0,970	-3,990
2865642,639	-8,099	-1,149	-3,842
2865647,522	-8,030	-1,069	-3,584
2865652,405	-8,099	-1,030	-3,861
2865657,288	-8,069	-1,050	-3,683
2865662,170	-8,109	-1,069	-3,703
2865667,053	-8,109	-0,891	-3,851
2865671,936	-8,178	-1,050	-3,762
2865676,819	-8,079	-0,960	-3,881
2865681,702	-8,059	-1,129	-3,782
2865686,584	-8,109	-1,020	-3,921
2865691,467	-8,059	-1,099	-3,861
2865696,350	-8,069	-1,040	-3,931
2865701,233	-8,158	-0,891	-3,881
2865706,116	-8,089	-0,911	-3,752
2865710,999	-8,059	-1,089	-3,891
2865715,881	-8,139	-0,960	-3,911
2865720,764	-8,040	-0,911	-3,931
2865725,647	-8,099	-0,970	-3,881
2865730,530	-8,040	-0,891	-3,901
2865735,413	-7,980	-1,050	-3,921
2865740,295	-8,010	-1,059	-3,762
2865745,178	-8,059	-0,891	-3,802
2865750,061	-8,129	-1,228	-4,099
2865754,944	-8,307	-0,970	-3,842
2865759,827	-7,960	-0,921	-3,881
2865764,709	-8,059	-1,089	-3,861
2865769,592	-8,485	-0,663	-3,931
2865774,475	-7,950	-1,000	-4,000
2865779,358	-8,000	-0,980	-3,752
2865784,241	-7,911	-0,515	-3,772
2865789,124	-8,079	-1,059	-3,762
2865794,006	-8,178	-0,901	-3,911
2865798,889	-8,129	-0,970	-3,901
2865803,772	-8,050	-0,891	-3,980
2865808,655	-8,119	-1,109	-3,723
2865813,538	-8,119	-1,079	-3,772
2865818,420	-8,089	-0,931	-4,000
2865823,303	-8,069	-0,970	-3,931
2865828,186	-8,079	-1,089	-3,861
2865833,069	-8,099	-1,109	-3,901
2865837,952	-8,188	-1,079	-3,851
2865842,834	-8,069	-1,010	-3,881
2865847,717	-8,109	-1,079	-3,832
2865852,600	-8,149	-1,030	-3,871
2865857,483	-8,129	-0,970	-3,832
2865862,366	-8,059	-1,040	-3,782
2865867,249	-8,089	-1,040	-3,743
2865872,131	-8,119	-1,079	-3,802
2865877,014	-8,149	-1,010	-3,851
2865881,897	-8,129	-1,000	-3,822
2865886,780	-8,040	-0,980	-3,812
2865891,663	-8,089	-1,109	-3,851
2865896,545	-8,069	-1,168	-3,871
2865901,428	-8,139	-1,109	-3,851
2865906,311	-7,950	-1,089	-3,772
2865911,194	-8,129	-1,059	-3,703
2865916,077	-8,069	-1,050	-3,792
2865920,959	-8,149	-1,119	-3,941
2865925,842	-8,188	-1,040	-3,653
2865930,725	-8,010	-1,010	-3,911
2865935,608	-8,059	-1,020	-3,832
2865940,491	-8,218	-1,059	-3,752
2865945,374	-8,030	-1,020	-3,911
2865950,256	-8,129	-1,069	-3,743
2865955,139	-8,030	-0,980	-3,832
2865960,022	-8,119	-1,119	-3,901
2865964,905	-8,089	-0,990	-3,792
2865969,788	-8,010	-0,970	-3,871
2865974,670	-8,139	-0,980	-3,901
