Shimmer 1	Shimmer 1	Shimmer 1	Shimmer 1	Shimmer 1	Shimmer 1	Shimmer 1	Shimmer 1
Timestamp	Accelerometer X	Accelerometer Y	Accelerometer Z	Timestamp	Accelerometer X	Accelerometer Y	Accelerometer Z
RAW	RAW	RAW	RAW	CAL	CAL	CAL	CAL
No unit	No unit	No unit	No unit	mSecs	m/(sec^2)*	m/(sec^2)*	m/(sec^2)*
54721	2962	2082	1708	45669,9523925781	9,04950495049505	0,336633663366337	-3,36633663366337
54881	2994	2073	1683	45674,8352050781	9,36633663366337	0,247524752475248	-3,61386138613861
55041	2980	2085	1687	45679,7180175781	9,22772277227723	0,366336633663366	-3,57425742574257
55201	2974	2090	1696	45684,6008300781	9,16831683168317	0,415841584158416	-3,48514851485149
55361	2984	2096	1692	45689,4836425781	9,26732673267327	0,475247524752475	-3,52475247524752
55521	2982	2085	1714	45694,3664550781	9,24752475247525	0,366336633663366	-3,30693069306931
55681	2963	2065	1699	45699,2492675781	9,05940594059406	0,168316831683168	-3,45544554455446
55841	3000	2069	1685	45704,1320800781	9,42574257425743	0,207920792079208	-3,59405940594059
56001	2983	2111	1700	45709,0148925781	9,25742574257426	0,623762376237624	-3,44554455445545
56161	2980	2075	1673	45713,8977050781	9,22772277227723	0,267326732673267	-3,71287128712871
56321	2987	2095	1717	45718,7805175781	9,2970297029703	0,465346534653465	-3,27722772277228
56481	2975	2069	1709	45723,6633300781	9,17821782178218	0,207920792079208	-3,35643564356436
56641	2988	2086	1706	45728,5461425781	9,30693069306931	0,376237623762376	-3,38613861386139
56801	2985	2083	1704	45733,4289550781	9,27722772277228	0,346534653465347	-3,40594059405941
56961	2980	2087	1713	45738,3117675781	9,22772277227723	0,386138613861386	-3,31683168316832
57121	2977	2087	1701	45743,1945800781	9,1980198019802	0,386138613861386	-3,43564356435644
57281	2989	2084	1687	45748,0773925781	9,31683168316832	0,356435643564356	-3,57425742574257
57441	2998	2083	1693	45752,9602050781	9,40594059405941	0,346534653465347	-3,51485148514851
57601	2978	2102	1684	45757,8430175781	9,20792079207921	0,534653465346535	-3,6039603960396
57761	2978	2085	1682	45762,7258300781	9,20792079207921	0,366336633663366	-3,62376237623762
57921	2970	2102	1681	45767,6086425781	9,12871287128713	0,534653465346535	-3,63366336633663
58081	2966	2085	1697	45772,4914550781	9,08910891089109	0,366336633663366	-3,47524752475248
58241	2992	2089	1692	45777,3742675781	9,34653465346535	0,405940594059406	-3,52475247524752
58401	2971	2100	1695	45782,2570800781	9,13861386138614	0,514851485148515	-3,4950495049505
58561	2980	2083	1697	45787,1398925781	9,22772277227723	0,346534653465347	-3,47524752475248
58721	2998	2085	1701	45792,0227050781	9,40594059405941	0,366336633663366	-3,43564356435644
58881	2976	2073	1704	45796,9055175781	9,18811881188119	0,247524752475248	-3,40594059405941
59041	2981	2088	1707	45801,7883300781	9,23762376237624	0,396039603960396	-3,37623762376238
59201	2984	2104	1688	45806,6711425781	9,26732673267327	0,554455445544555	-3,56435643564356
59361	2974	2071	1709	45811,5539550781	9,16831683168317	0,227722772277228	-3,35643564356436
59521	2982	2087	1705	45816,4367675781	9,24752475247525	0,386138613861386	-3,3960396039604
59681	2963	2083	1702	45821,3195800781	9,05940594059406	0,346534653465347	-3,42574257425743
59841	2975	2071	1679	45826,2023925781	9,17821782178218	0,227722772277228	-3,65346534653465
60001	2982	2085	1704	45831,0852050781	9,24752475247525	0,366336633663366	-3,40594059405941
60161	2972	2069	1696	45835,9680175781	9,14851485148515	0,207920792079208	-3,48514851485149
60321	2974	2100	1702	45840,8508300781	9,16831683168317	0,514851485148515	-3,42574257425743
60481	2974	2064	1678	45845,7336425781	9,16831683168317	0,158415841584158	-3,66336633663366
60641	2984	2087	1686	45850,6164550781	9,26732673267327	0,386138613861386	-3,58415841584158
60801	2995	2076	1705	45855,4992675781	9,37623762376238	0,277227722772277	-3,3960396039604
60961	2964	2072	1694	45860,3820800781	9,06930693069307	0,237623762376238	-3,50495049504951
61121	2986	2093	1708	45865,2648925781	9,28712871287129	0,445544554455446	-3,36633663366337
61281	2971	2064	1694	45870,1477050781	9,13861386138614	0,158415841584158	-3,50495049504951
61441	2982	2069	1699	45875,0305175781	9,24752475247525	0,207920792079208	-3,45544554455446
61601	2981	2082	1694	45879,9133300781	9,23762376237624	0,336633663366337	-3,50495049504951
61761	2978	2088	1693	45884,7961425781	9,20792079207921	0,396039603960396	-3,51485148514851
61921	2977	2093	1713	45889,6789550781	9,1980198019802	0,445544554455446	-3,31683168316832
62081	2970	2088	1690	45894,5617675781	9,12871287128713	0,396039603960396	-3,54455445544554
62241	2987	2084	1684	45899,4445800781	9,2970297029703	0,356435643564356	-3,6039603960396
62401	2993	2075	1706	45904,3273925781	9,35643564356436	0,267326732673267	-3,38613861386139
62561	2987	2070	1696	45909,2102050781	9,2970297029703	0,217821782178218	-3,48514851485149
62721	2969	2082	1709	45914,0930175781	9,11881188118812	0,336633663366337	-3,35643564356436
62881	2984	2078	1699	45918,9758300781	9,26732673267327	0,297029702970297	-3,45544554455446
63041	2993	2087	1685	45923,8586425781	9,35643564356436	0,386138613861386	-3,59405940594059
63201	2985	2092	1702	45928,7414550781	9,27722772277228	0,435643564356436	-3,42574257425743
63361	2986	2083	1696	45933,6242675781	9,28712871287129	0,346534653465347	-3,48514851485149
63521	2969	2087	1691	45938,5070800781	9,11881188118812	0,386138613861386	-3,53465346534653
63681	2987	2083	1699	45943,3898925781	9,2970297029703	0,346534653465347	-3,45544554455446
63841	2973	2088	1673	45948,2727050781	9,15841584158416	0,396039603960396	-3,71287128712871
64001	2971	2086	1684	45953,1555175781	9,13861386138614	0,376237623762376	-3,6039603960396
64161	2969	2073	1677	45958,0383300781	9,11881188118812	0,247524752475248	-3,67326732673267
64321	2985	2087	1696	45962,9211425781	9,27722772277228	0,386138613861386	-3,48514851485149
64481	2977	2078	1701	45967,8039550781	9,1980198019802	0,297029702970297	-3,43564356435644
64641	2963	2061	1683	45972,6867675781	9,05940594059406	0,128712871287129	-3,61386138613861
64801	2970	2104	1682	45977,5695800781	9,12871287128713	0,554455445544555	-3,62376237623762
64961	2978	2079	1683	45982,4523925781	9,20792079207921	0,306930693069307	-3,61386138613861
65121	2994	2087	1690	45987,3352050781	9,36633663366337	0,386138613861386	-3,54455445544554
65281	2962	2085	1700	45992,2180175781	9,04950495049505	0,366336633663366	-3,44554455445545
65441	2969	2085	1679	45997,1008300781	9,11881188118812	0,366336633663366	-3,65346534653465
65	2981	2099	1696	46001,9836425781	9,23762376237624	0,504950495049505	-3,48514851485149
225	2999	2079	1685	46006,8664550781	9,41584158415842	0,306930693069307	-3,59405940594059
385	2965	2086	1708	46011,7492675781	9,07920792079208	0,376237623762376	-3,36633663366337
545	3001	2092	1681	46016,6320800781	9,43564356435644	0,435643564356436	-3,63366336633663
705	2987	2068	1700	46021,5148925781	9,2970297029703	0,198019801980198	-3,44554455445545
865	2958	2087	1698	46026,3977050781	9,00990099009901	0,386138613861386	-3,46534653465347
1025	2962	2086	1671	46031,2805175781	9,04950495049505	0,376237623762376	-3,73267326732673
1185	2957	2084	1701	46036,1633300781	9	0,356435643564356	-3,43564356435644
1345	2980	2079	1701	46041,0461425781	9,22772277227723	0,306930693069307	-3,43564356435644
1505	2994	2079	1699	46045,9289550781	9,36633663366337	0,306930693069307	-3,45544554455446
1665	2981	2083	1690	46050,8117675781	9,23762376237624	0,346534653465347	-3,54455445544554
1825	2969	2084	1699	46055,6945800781	9,11881188118812	0,356435643564356	-3,45544554455446
1985	2983	2106	1699	46060,5773925781	9,25742574257426	0,574257425742574	-3,45544554455446
2145	2997	2075	1684	46065,4602050781	9,3960396039604	0,267326732673267	-3,6039603960396
2305	2999	2069	1697	46070,3430175781	9,41584158415842	0,207920792079208	-3,47524752475248
2465	2980	2090	1700	46075,2258300781	9,22772277227723	0,415841584158416	-3,44554455445545
2625	2992	2069	1683	46080,1086425781	9,34653465346535	0,207920792079208	-3,61386138613861
2785	2983	2086	1718	46084,9914550781	9,25742574257426	0,376237623762376	-3,26732673267327
2945	2969	2078	1684	46089,8742675781	9,11881188118812	0,297029702970297	-3,6039603960396
3105	2971	2091	1690	46094,7570800781	9,13861386138614	0,425742574257426	-3,54455445544554
3265	2990	2067	1673	46099,6398925781	9,32673267326733	0,188118811881188	-3,71287128712871
3425	2954	2082	1686	46104,5227050781	8,97029702970297	0,336633663366337	-3,58415841584158
3585	2973	2106	1689	46109,4055175781	9,15841584158416	0,574257425742574	-3,55445544554455
3745	2987	2095	1691	46114,2883300781	9,2970297029703	0,465346534653465	-3,53465346534653
3905	2988	2073	1679	46119,1711425781	9,30693069306931	0,247524752475248	-3,65346534653465
4065	2982	2083	1691	46124,0539550781	9,24752475247525	0,346534653465347	-3,53465346534653
4225	2978	2086	1675	46128,9367675781	9,20792079207921	0,376237623762376	-3,69306930693069
4385	2979	2090	1693	46133,8195800781	9,21782178217822	0,415841584158416	-3,51485148514851
4545	2986	2098	1694	46138,7023925781	9,28712871287129	0,495049504950495	-3,50495049504951
4705	2981	2098	1698	46143,5852050781	9,23762376237624	0,495049504950495	-3,46534653465347
4865	2980	2059	1689	46148,4680175781	9,22772277227723	0,108910891089109	-3,55445544554455
5025	3003	2081	1674	46153,3508300781	9,45544554455446	0,326732673267327	-3,7029702970297
5185	2991	2094	1683	46158,2336425781	9,33663366336634	0,455445544554455	-3,61386138613861
5345	2971	2074	1699	46163,1164550781	9,13861386138614	0,257425742574257	-3,45544554455446
5505	2989	2094	1707	46167,9992675781	9,31683168316832	0,455445544554455	-3,37623762376238
5665	2977	2062	1675	46172,8820800781	9,1980198019802	0,138613861386139	-3,69306930693069
5825	2982	2099	1667	46177,7648925781	9,24752475247525	0,504950495049505	-3,77227722772277
5985	2989	2082	1691	46182,6477050781	9,31683168316832	0,336633663366337	-3,53465346534653
6145	2979	2094	1708	46187,5305175781	9,21782178217822	0,455445544554455	-3,36633663366337
6305	2976	2076	1713	46192,4133300781	9,18811881188119	0,277227722772277	-3,31683168316832
6465	2983	2081	1689	46197,2961425781	9,25742574257426	0,326732673267327	-3,55445544554455
6625	2972	2081	1696	46202,1789550781	9,14851485148515	0,326732673267327	-3,48514851485149
6785	2978	2090	1703	46207,0617675781	9,20792079207921	0,415841584158416	-3,41584158415842
6945	2992	2081	1681	46211,9445800781	9,34653465346535	0,326732673267327	-3,63366336633663
7105	2987	2093	1696	46216,8273925781	9,2970297029703	0,445544554455446	-3,48514851485149
7265	2985	2090	1695	46221,7102050781	9,27722772277228	0,415841584158416	-3,4950495049505
7425	2980	2086	1696	46226,5930175781	9,22772277227723	0,376237623762376	-3,48514851485149
7585	2954	2087	1691	46231,4758300781	8,97029702970297	0,386138613861386	-3,53465346534653
7745	2961	2082	1701	46236,3586425781	9,03960396039604	0,336633663366337	-3,43564356435644
7905	2986	2082	1699	46241,2414550781	9,28712871287129	0,336633663366337	-3,45544554455446
8065	2988	2083	1700	46246,1242675781	9,30693069306931	0,346534653465347	-3,44554455445545
8225	2993	2079	1689	46251,0070800781	9,35643564356436	0,306930693069307	-3,55445544554455
8385	2976	2068	1705	46255,8898925781	9,18811881188119	0,198019801980198	-3,3960396039604
8545	2998	2076	1683	46260,7727050781	9,40594059405941	0,277227722772277	-3,61386138613861
8705	2994	2083	1708	46265,6555175781	9,36633663366337	0,346534653465347	-3,36633663366337
8865	2990	2092	1695	46270,5383300781	9,32673267326733	0,435643564356436	-3,4950495049505
9025	2981	2072	1704	46275,4211425781	9,23762376237624	0,237623762376238	-3,40594059405941
9185	2968	2066	1709	46280,3039550781	9,10891089108911	0,178217821782178	-3,35643564356436
9345	2975	2084	1695	46285,1867675781	9,17821782178218	0,356435643564356	-3,4950495049505
9505	2998	2063	1691	46290,0695800781	9,40594059405941	0,148514851485149	-3,53465346534653
9665	2971	2089	1699	46294,9523925781	9,13861386138614	0,405940594059406	-3,45544554455446
9825	2985	2084	1694	46299,8352050781	9,27722772277228	0,356435643564356	-3,50495049504951
9985	2966	2079	1697	46304,7180175781	9,08910891089109	0,306930693069307	-3,47524752475248
10145	3005	2080	1691	46309,6008300781	9,47524752475248	0,316831683168317	-3,53465346534653
10305	2971	2064	1693	46314,4836425781	9,13861386138614	0,158415841584158	-3,51485148514851
10465	2969	2086	1683	46319,3664550781	9,11881188118812	0,376237623762376	-3,61386138613861
10625	2974	2105	1691	46324,2492675781	9,16831683168317	0,564356435643564	-3,53465346534653
10785	2967	2092	1669	46329,1320800781	9,0990099009901	0,435643564356436	-3,75247524752475
10945	2976	2086	1697	46334,0148925781	9,18811881188119	0,376237623762376	-3,47524752475248
11105	2983	2097	1696	46338,8977050781	9,25742574257426	0,485148514851485	-3,48514851485149
11265	2983	2083	1699	46343,7805175781	9,25742574257426	0,346534653465347	-3,45544554455446
11425	2985	2089	1700	46348,6633300781	9,27722772277228	0,405940594059406	-3,44554455445545
11585	2968	2085	1702	46353,5461425781	9,10891089108911	0,366336633663366	-3,42574257425743
11745	2969	2096	1692	46358,4289550781	9,11881188118812	0,475247524752475	-3,52475247524752
11905	2984	2089	1695	46363,3117675781	9,26732673267327	0,405940594059406	-3,4950495049505
12065	2986	2098	1705	46368,1945800781	9,28712871287129	0,495049504950495	-3,3960396039604
12225	2969	2089	1681	46373,0773925781	9,11881188118812	0,405940594059406	-3,63366336633663
12385	2981	2072	1695	46377,9602050781	9,23762376237624	0,237623762376238	-3,4950495049505
12545	2982	2083	1699	46382,8430175781	9,24752475247525	0,346534653465347	-3,45544554455446
12705	2988	2085	1668	46387,7258300781	9,30693069306931	0,366336633663366	-3,76237623762376
12865	2978	2065	1701	46392,6086425781	9,20792079207921	0,168316831683168	-3,43564356435644
13025	2964	2081	1701	46397,4914550781	9,06930693069307	0,326732673267327	-3,43564356435644
13185	2980	2090	1695	46402,3742675781	9,22772277227723	0,415841584158416	-3,4950495049505
13345	2973	2079	1699	46407,2570800781	9,15841584158416	0,306930693069307	-3,45544554455446
13505	2979	2105	1678	46412,1398925781	9,21782178217822	0,564356435643564	-3,66336633663366
13665	2981	2103	1708	46417,0227050781	9,23762376237624	0,544554455445545	-3,36633663366337
13825	2993	2075	1688	46421,9055175781	9,35643564356436	0,267326732673267	-3,56435643564356
13985	3004	2081	1674	46426,7883300781	9,46534653465346	0,326732673267327	-3,7029702970297
14145	2978	2087	1690	46431,6711425781	9,20792079207921	0,386138613861386	-3,54455445544554
14305	2964	2075	1673	46436,5539550781	9,06930693069307	0,267326732673267	-3,71287128712871
14465	2982	2097	1691	46441,4367675781	9,24752475247525	0,485148514851485	-3,53465346534653
14625	2989	2073	1690	46446,3195800781	9,31683168316832	0,247524752475248	-3,54455445544554
14785	2976	2080	1700	46451,2023925781	9,18811881188119	0,316831683168317	-3,44554455445545
14945	2980	2079	1676	46456,0852050781	9,22772277227723	0,306930693069307	-3,68316831683168
15105	2984	2094	1688	46460,9680175781	9,26732673267327	0,455445544554455	-3,56435643564356
15265	2985	2069	1702	46465,8508300781	9,27722772277228	0,207920792079208	-3,42574257425743
15425	2987	2111	1673	46470,7336425781	9,2970297029703	0,623762376237624	-3,71287128712871
15585	2987	2079	1649	46475,6164550781	9,2970297029703	0,306930693069307	-3,95049504950495
15745	2939	2090	1742	46480,4992675781	8,82178217821782	0,415841584158416	-3,02970297029703
15905	2998	2097	1688	46485,3820800781	9,40594059405941	0,485148514851485	-3,56435643564356
16065	2976	2102	1691	46490,2648925781	9,18811881188119	0,534653465346535	-3,53465346534653
16225	2992	2070	1691	46495,1477050781	9,34653465346535	0,217821782178218	-3,53465346534653
16385	2984	2071	1675	46500,0305175781	9,26732673267327	0,227722772277228	-3,69306930693069
16545	2975	2095	1707	46504,9133300781	9,17821782178218	0,465346534653465	-3,37623762376238
16705	2977	2070	1689	46509,7961425781	9,1980198019802	0,217821782178218	-3,55445544554455
16865	3004	2058	1688	46514,6789550781	9,46534653465346	0,099009900990099	-3,56435643564356
17025	2989	2073	1695	46519,5617675781	9,31683168316832	0,247524752475248	-3,4950495049505
17185	2988	2087	1699	46524,4445800781	9,30693069306931	0,386138613861386	-3,45544554455446
17345	2964	2088	1689	46529,3273925781	9,06930693069307	0,396039603960396	-3,55445544554455
17505	2977	2093	1729	46534,2102050781	9,1980198019802	0,445544554455446	-3,15841584158416
17665	2982	2058	1679	46539,0930175781	9,24752475247525	0,099009900990099	-3,65346534653465
17825	3004	2080	1705	46543,9758300781	9,46534653465346	0,316831683168317	-3,3960396039604
17985	2987	2074	1675	46548,8586425781	9,2970297029703	0,257425742574257	-3,69306930693069
18145	2982	2073	1686	46553,7414550781	9,24752475247525	0,247524752475248	-3,58415841584158
18305	2987	2080	1688	46558,6242675781	9,2970297029703	0,316831683168317	-3,56435643564356
18465	2965	2072	1711	46563,5070800781	9,07920792079208	0,237623762376238	-3,33663366336634
18625	2984	2085	1682	46568,3898925781	9,26732673267327	0,366336633663366	-3,62376237623762
18785	2976	2070	1692	46573,2727050781	9,18811881188119	0,217821782178218	-3,52475247524752
18945	2958	2078	1701	46578,1555175781	9,00990099009901	0,297029702970297	-3,43564356435644
19105	2970	2099	1706	46583,0383300781	9,12871287128713	0,504950495049505	-3,38613861386139
19265	2967	2063	1682	46587,9211425781	9,0990099009901	0,148514851485149	-3,62376237623762
19425	2957	2101	1707	46592,8039550781	9	0,524752475247525	-3,37623762376238
19585	2984	2075	1692	46597,6867675781	9,26732673267327	0,267326732673267	-3,52475247524752
19745	2993	2099	1678	46602,5695800781	9,35643564356436	0,504950495049505	-3,66336633663366
19905	3002	2085	1717	46607,4523925781	9,44554455445545	0,366336633663366	-3,27722772277228
20065	2992	2085	1700	46612,3352050781	9,34653465346535	0,366336633663366	-3,44554455445545
20225	2990	2075	1691	46617,2180175781	9,32673267326733	0,267326732673267	-3,53465346534653
20385	2989	2097	1685	46622,1008300781	9,31683168316832	0,485148514851485	-3,59405940594059
20545	2982	2085	1689	46626,9836425781	9,24752475247525	0,366336633663366	-3,55445544554455
20705	2991	2097	1691	46631,8664550781	9,33663366336634	0,485148514851485	-3,53465346534653
20865	2992	2068	1708	46636,7492675781	9,34653465346535	0,198019801980198	-3,36633663366337
21025	2962	2079	1690	46641,6320800781	9,04950495049505	0,306930693069307	-3,54455445544554
21185	2992	2103	1692	46646,5148925781	9,34653465346535	0,544554455445545	-3,52475247524752
21345	2956	2075	1727	46651,3977050781	8,99009900990099	0,267326732673267	-3,17821782178218
21505	2978	2084	1693	46656,2805175781	9,20792079207921	0,356435643564356	-3,51485148514851
21665	2983	2099	1698	46661,1633300781	9,25742574257426	0,504950495049505	-3,46534653465347
21825	2962	2097	1707	46666,0461425781	9,04950495049505	0,485148514851485	-3,37623762376238
21985	2992	2079	1689	46670,9289550781	9,34653465346535	0,306930693069307	-3,55445544554455
22145	2971	2085	1706	46675,8117675781	9,13861386138614	0,366336633663366	-3,38613861386139
22305	2962	2071	1686	46680,6945800781	9,04950495049505	0,227722772277228	-3,58415841584158
22465	2998	2090	1721	46685,5773925781	9,40594059405941	0,415841584158416	-3,23762376237624
22625	2984	2081	1688	46690,4602050781	9,26732673267327	0,326732673267327	-3,56435643564356
22785	2976	2076	1698	46695,3430175781	9,18811881188119	0,277227722772277	-3,46534653465347
22945	2961	2089	1708	46700,2258300781	9,03960396039604	0,405940594059406	-3,36633663366337
23105	2978	2085	1688	46705,1086425781	9,20792079207921	0,366336633663366	-3,56435643564356
23265	2988	2057	1679	46709,9914550781	9,30693069306931	0,0891089108910891	-3,65346534653465
23425	3002	2083	1679	46714,8742675781	9,44554455445545	0,346534653465347	-3,65346534653465
23585	2985	2081	1687	46719,7570800781	9,27722772277228	0,326732673267327	-3,57425742574257
23745	2981	2090	1695	46724,6398925781	9,23762376237624	0,415841584158416	-3,4950495049505
23905	2998	2076	1690	46729,5227050781	9,40594059405941	0,277227722772277	-3,54455445544554
24065	2972	2090	1688	46734,4055175781	9,14851485148515	0,415841584158416	-3,56435643564356
24225	2958	2087	1689	46739,2883300781	9,00990099009901	0,386138613861386	-3,55445544554455
24385	2977	2099	1711	46744,1711425781	9,1980198019802	0,504950495049505	-3,33663366336634
24545	2997	2079	1684	46749,0539550781	9,3960396039604	0,306930693069307	-3,6039603960396
24705	3002	2075	1688	46753,9367675781	9,44554455445545	0,267326732673267	-3,56435643564356
24865	2969	2071	1675	46758,8195800781	9,11881188118812	0,227722772277228	-3,69306930693069
25025	2985	2086	1707	46763,7023925781	9,27722772277228	0,376237623762376	-3,37623762376238
25185	2995	2090	1707	46768,5852050781	9,37623762376238	0,415841584158416	-3,37623762376238
25345	2975	2091	1706	46773,4680175781	9,17821782178218	0,425742574257426	-3,38613861386139
25505	2976	2081	1664	46778,3508300781	9,18811881188119	0,326732673267327	-3,8019801980198
25665	2959	2084	1708	46783,2336425781	9,01980198019802	0,356435643564356	-3,36633663366337
25825	2992	2087	1687	46788,1164550781	9,34653465346535	0,386138613861386	-3,57425742574257
25985	2978	2087	1703	46792,9992675781	9,20792079207921	0,386138613861386	-3,41584158415842
26145	2994	2078	1689	46797,8820800781	9,36633663366337	0,297029702970297	-3,55445544554455
26305	2981	2081	1710	46802,7648925781	9,23762376237624	0,326732673267327	-3,34653465346535
26465	2987	2081	1702	46807,6477050781	9,2970297029703	0,326732673267327	-3,42574257425743
26625	2998	2092	1703	46812,5305175781	9,40594059405941	0,435643564356436	-3,41584158415842
26785	2985	2074	1702	46817,4133300781	9,27722772277228	0,257425742574257	-3,42574257425743
26945	2980	2083	1669	46822,2961425781	9,22772277227723	0,346534653465347	-3,75247524752475
27105	2991	2060	1689	46827,1789550781	9,33663366336634	0,118811881188119	-3,55445544554455
27265	2995	2092	1679	46832,0617675781	9,37623762376238	0,435643564356436	-3,65346534653465
27425	2985	2093	1698	46836,9445800781	9,27722772277228	0,445544554455446	-3,46534653465347
27585	2976	2077	1694	46841,8273925781	9,18811881188119	0,287128712871287	-3,50495049504951
27745	2972	2081	1706	46846,7102050781	9,14851485148515	0,326732673267327	-3,38613861386139
27905	2992	2095	1694	46851,5930175781	9,34653465346535	0,465346534653465	-3,50495049504951
28065	2953	2089	1673	46856,4758300781	8,96039603960396	0,405940594059406	-3,71287128712871
28225	2987	2076	1695	46861,3586425781	9,2970297029703	0,277227722772277	-3,4950495049505
28385	2991	2076	1698	46866,2414550781	9,33663366336634	0,277227722772277	-3,46534653465347
28545	2968	2087	1692	46871,1242675781	9,10891089108911	0,386138613861386	-3,52475247524752
28705	3005	2087	1688	46876,0070800781	9,47524752475248	0,386138613861386	-3,56435643564356
28865	2966	2091	1704	46880,8898925781	9,08910891089109	0,425742574257426	-3,40594059405941
29025	2991	2085	1695	46885,7727050781	9,33663366336634	0,366336633663366	-3,4950495049505
29185	2993	2075	1703	46890,6555175781	9,35643564356436	0,267326732673267	-3,41584158415842
29345	2961	2094	1683	46895,5383300781	9,03960396039604	0,455445544554455	-3,61386138613861
29505	2982	2075	1691	46900,4211425781	9,24752475247525	0,267326732673267	-3,53465346534653
29665	2954	2086	1703	46905,3039550781	8,97029702970297	0,376237623762376	-3,41584158415842
29825	2954	2078	1695	46910,1867675781	8,97029702970297	0,297029702970297	-3,4950495049505
29985	2976	2065	1703	46915,0695800781	9,18811881188119	0,168316831683168	-3,41584158415842
30145	2997	2081	1704	46919,9523925781	9,3960396039604	0,326732673267327	-3,40594059405941
30305	2977	2075	1699	46924,8352050781	9,1980198019802	0,267326732673267	-3,45544554455446
30465	2984	2071	1700	46929,7180175781	9,26732673267327	0,227722772277228	-3,44554455445545
30625	2974	2087	1707	46934,6008300781	9,16831683168317	0,386138613861386	-3,37623762376238
30785	2976	2077	1715	46939,4836425781	9,18811881188119	0,287128712871287	-3,2970297029703
30945	2983	2083	1669	46944,3664550781	9,25742574257426	0,346534653465347	-3,75247524752475
31105	2974	2056	1693	46949,2492675781	9,16831683168317	0,0792079207920792	-3,51485148514851
31265	2950	2095	1704	46954,1320800781	8,93069306930693	0,465346534653465	-3,40594059405941
31425	3004	2085	1679	46959,0148925781	9,46534653465346	0,366336633663366	-3,65346534653465
31585	2997	2070	1693	46963,8977050781	9,3960396039604	0,217821782178218	-3,51485148514851
31745	2998	2095	1677	46968,7805175781	9,40594059405941	0,465346534653465	-3,67326732673267
31905	2980	2058	1699	46973,6633300781	9,22772277227723	0,099009900990099	-3,45544554455446
32065	2952	2082	1710	46978,5461425781	8,95049504950495	0,336633663366337	-3,34653465346535
32225	2983	2087	1691	46983,4289550781	9,25742574257426	0,386138613861386	-3,53465346534653
32385	2961	2083	1685	46988,3117675781	9,03960396039604	0,346534653465347	-3,59405940594059
32545	2979	2106	1692	46993,1945800781	9,21782178217822	0,574257425742574	-3,52475247524752
32705	2975	2084	1699	46998,0773925781	9,17821782178218	0,356435643564356	-3,45544554455446
32865	2978	2067	1696	47002,9602050781	9,20792079207921	0,188118811881188	-3,48514851485149
33025	2976	2078	1678	47007,8430175781	9,18811881188119	0,297029702970297	-3,66336633663366
33185	2976	2071	1688	47012,7258300781	9,18811881188119	0,227722772277228	-3,56435643564356
33345	2977	2093	1685	47017,6086425781	9,1980198019802	0,445544554455446	-3,59405940594059
33505	2990	2081	1706	47022,4914550781	9,32673267326733	0,326732673267327	-3,38613861386139
33665	2970	2085	1702	47027,3742675781	9,12871287128713	0,366336633663366	-3,42574257425743
33825	2987	2087	1688	47032,2570800781	9,2970297029703	0,386138613861386	-3,56435643564356
33985	2986	2074	1687	47037,1398925781	9,28712871287129	0,257425742574257	-3,57425742574257
34145	2976	2094	1692	47042,0227050781	9,18811881188119	0,455445544554455	-3,52475247524752
34305	2971	2071	1697	47046,9055175781	9,13861386138614	0,227722772277228	-3,47524752475248
34465	2980	2078	1685	47051,7883300781	9,22772277227723	0,297029702970297	-3,59405940594059
34625	2983	2087	1709	47056,6711425781	9,25742574257426	0,386138613861386	-3,35643564356436
34785	2987	2078	1691	47061,5539550781	9,2970297029703	0,297029702970297	-3,53465346534653
34945	2978	2095	1681	47066,4367675781	9,20792079207921	0,465346534653465	-3,63366336633663
35105	2980	2071	1718	47071,3195800781	9,22772277227723	0,227722772277228	-3,26732673267327
35265	2974	2060	1714	47076,2023925781	9,16831683168317	0,118811881188119	-3,30693069306931
35425	2985	2068	1698	47081,0852050781	9,27722772277228	0,198019801980198	-3,46534653465347
35585	2992	2098	1689	47085,9680175781	9,34653465346535	0,495049504950495	-3,55445544554455
35745	2974	2080	1677	47090,8508300781	9,16831683168317	0,316831683168317	-3,67326732673267
35905	2992	2080	1698	47095,7336425781	9,34653465346535	0,316831683168317	-3,46534653465347
36065	2963	2072	1712	47100,6164550781	9,05940594059406	0,237623762376238	-3,32673267326733
36225	2985	2083	1665	47105,4992675781	9,27722772277228	0,346534653465347	-3,79207920792079
36385	2988	2100	1691	47110,3820800781	9,30693069306931	0,514851485148515	-3,53465346534653
36545	2977	2070	1716	47115,2648925781	9,1980198019802	0,217821782178218	-3,28712871287129
36705	2977	2072	1695	47120,1477050781	9,1980198019802	0,237623762376238	-3,4950495049505
36865	2995	2073	1678	47125,0305175781	9,37623762376238	0,247524752475248	-3,66336633663366
37025	2984	2079	1695	47129,9133300781	9,26732673267327	0,306930693069307	-3,4950495049505
37185	2975	2072	1690	47134,7961425781	9,17821782178218	0,237623762376238	-3,54455445544554
37345	2968	2089	1675	47139,6789550781	9,10891089108911	0,405940594059406	-3,69306930693069
37505	2995	2069	1689	47144,5617675781	9,37623762376238	0,207920792079208	-3,55445544554455
37665	2976	2081	1685	47149,4445800781	9,18811881188119	0,326732673267327	-3,59405940594059
37825	2984	2088	1728	47154,3273925781	9,26732673267327	0,396039603960396	-3,16831683168317
37985	3000	2071	1693	47159,2102050781	9,42574257425743	0,227722772277228	-3,51485148514851
38145	2960	2087	1704	47164,0930175781	9,02970297029703	0,386138613861386	-3,40594059405941
38305	2969	2084	1688	47168,9758300781	9,11881188118812	0,356435643564356	-3,56435643564356
38465	2989	2093	1688	47173,8586425781	9,31683168316832	0,445544554455446	-3,56435643564356
38625	2988	2077	1676	47178,7414550781	9,30693069306931	0,287128712871287	-3,68316831683168
38785	2982	2089	1697	47183,6242675781	9,24752475247525	0,405940594059406	-3,47524752475248
38945	2974	2078	1683	47188,5070800781	9,16831683168317	0,297029702970297	-3,61386138613861
39105	2997	2097	1679	47193,3898925781	9,3960396039604	0,485148514851485	-3,65346534653465
39265	2985	2082	1712	47198,2727050781	9,27722772277228	0,336633663366337	-3,32673267326733
39425	2978	2100	1688	47203,1555175781	9,20792079207921	0,514851485148515	-3,56435643564356
39585	2977	2070	1697	47208,0383300781	9,1980198019802	0,217821782178218	-3,47524752475248
39745	2968	2075	1702	47212,9211425781	9,10891089108911	0,267326732673267	-3,42574257425743
39905	3002	2076	1699	47217,8039550781	9,44554455445545	0,277227722772277	-3,45544554455446
40065	3000	2039	1679	47222,6867675781	9,42574257425743	-0,0891089108910891	-3,65346534653465
40225	2972	2104	1708	47227,5695800781	9,14851485148515	0,554455445544555	-3,36633663366337
40385	2981	2093	1702	47232,4523925781	9,23762376237624	0,445544554455446	-3,42574257425743
40545	2962	2091	1692	47237,3352050781	9,04950495049505	0,425742574257426	-3,52475247524752
40705	2976	2080	1704	47242,2180175781	9,18811881188119	0,316831683168317	-3,40594059405941
40865	2960	2082	1689	47247,1008300781	9,02970297029703	0,336633663366337	-3,55445544554455
41025	2988	2089	1700	47251,9836425781	9,30693069306931	0,405940594059406	-3,44554455445545
41185	2976	2074	1687	47256,8664550781	9,18811881188119	0,257425742574257	-3,57425742574257
41345	2985	2093	1667	47261,7492675781	9,27722772277228	0,445544554455446	-3,77227722772277
41505	2975	2066	1681	47266,6320800781	9,17821782178218	0,178217821782178	-3,63366336633663
41665	3003	2102	1689	47271,5148925781	9,45544554455446	0,534653465346535	-3,55445544554455
41825	2968	2110	1675	47276,3977050781	9,10891089108911	0,613861386138614	-3,69306930693069
41985	2974	2090	1688	47281,2805175781	9,16831683168317	0,415841584158416	-3,56435643564356
42145	2995	2078	1698	47286,1633300781	9,37623762376238	0,297029702970297	-3,46534653465347
42305	2979	2075	1691	47291,0461425781	9,21782178217822	0,267326732673267	-3,53465346534653
42465	2956	2080	1694	47295,9289550781	8,99009900990099	0,316831683168317	-3,50495049504951
42625	2975	2097	1673	47300,8117675781	9,17821782178218	0,485148514851485	-3,71287128712871
42785	2989	2063	1683	47305,6945800781	9,31683168316832	0,148514851485149	-3,61386138613861
42945	2975	2079	1716	47310,5773925781	9,17821782178218	0,306930693069307	-3,28712871287129
43105	2976	2093	1686	47315,4602050781	9,18811881188119	0,445544554455446	-3,58415841584158
43265	2973	2075	1681	47320,3430175781	9,15841584158416	0,267326732673267	-3,63366336633663
43425	2951	2103	1708	47325,2258300781	8,94059405940594	0,544554455445545	-3,36633663366337
43585	2975	2073	1698	47330,1086425781	9,17821782178218	0,247524752475248	-3,46534653465347
43745	2970	2082	1693	47334,9914550781	9,12871287128713	0,336633663366337	-3,51485148514851
43905	2990	2094	1692	47339,8742675781	9,32673267326733	0,455445544554455	-3,52475247524752
44065	2973	2086	1693	47344,7570800781	9,15841584158416	0,376237623762376	-3,51485148514851
44225	2976	2071	1700	47349,6398925781	9,18811881188119	0,227722772277228	-3,44554455445545
44385	2974	2084	1680	47354,5227050781	9,16831683168317	0,356435643564356	-3,64356435643564
44545	3005	2073	1662	47359,4055175781	9,47524752475248	0,247524752475248	-3,82178217821782
44705	3013	2092	1616	47364,2883300781	9,55445544554455	0,435643564356436	-4,27722772277228
44865	2973	2083	1606	47369,1711425781	9,15841584158416	0,346534653465347	-4,37623762376238
45025	3007	2083	1568	47374,0539550781	9,4950495049505	0,346534653465347	-4,75247524752475
45185	2911	2079	1102	47378,9367675781	8,54455445544554	0,306930693069307	-9,36633663366337
45345	3094	2054	1149	47383,8195800781	10,3564356435644	0,0594059405940594	-8,9009900990099
45505	3334	2067	1501	47388,7023925781	12,7326732673267	0,188118811881188	-5,41584158415842
45665	3083	2141	1383	47393,5852050781	10,2475247524752	0,920792079207921	-6,58415841584158
45825	2652	1975	1355	47398,4680175781	5,98019801980198	-0,722772277227723	-6,86138613861386
45985	2961	2189	1756	47403,3508300781	9,03960396039604	1,3960396039604	-2,89108910891089
46145	3782	2465	2587	47408,2336425781	17,1683168316832	4,12871287128713	5,33663366336634
46305	2562	1953	2046	47413,1164550781	5,08910891089109	-0,940594059405941	-0,0198019801980198
46465	3176	1903	1807	47417,9992675781	11,1683168316832	-1,43564356435644	-2,38613861386139
46625	3037	1931	1911	47422,8820800781	9,79207920792079	-1,15841584158416	-1,35643564356436
46785	2998	2065	1915	47427,7648925781	9,40594059405941	0,168316831683168	-1,31683168316832
46945	2983	2125	1775	47432,6477050781	9,25742574257426	0,762376237623762	-2,7029702970297
47105	2998	2108	1807	47437,5305175781	9,40594059405941	0,594059405940594	-2,38613861386139
47265	2957	2073	1862	47442,4133300781	9	0,247524752475248	-1,84158415841584
47425	2930	2091	1894	47447,2961425781	8,73267326732673	0,425742574257426	-1,52475247524752
47585	2969	2093	1841	47452,1789550781	9,11881188118812	0,445544554455446	-2,04950495049505
47745	2933	2103	1906	47457,0617675781	8,76237623762376	0,544554455445545	-1,40594059405941
47905	2941	2103	1899	47461,9445800781	8,84158415841584	0,544554455445545	-1,47524752475248
48065	3518	2302	1754	47466,8273925781	14,5544554455446	2,51485148514851	-2,91089108910891
48225	2953	2051	1769	47471,7102050781	8,96039603960396	0,0297029702970297	-2,76237623762376
48385	3237	2185	1751	47476,5930175781	11,7722772277228	1,35643564356436	-2,94059405940594
48545	2987	2068	1734	47481,4758300781	9,2970297029703	0,198019801980198	-3,10891089108911
48705	3141	2111	1703	47486,3586425781	10,8217821782178	0,623762376237624	-3,41584158415842
48865	3078	2055	1701	47491,2414550781	10,1980198019802	0,0693069306930693	-3,43564356435644
49025	3080	2025	1681	47496,1242675781	10,2178217821782	-0,227722772277228	-3,63366336633663
49185	3098	2014	1674	47501,0070800781	10,3960396039604	-0,336633663366337	-3,7029702970297
49345	3098	2005	1662	47505,8898925781	10,3960396039604	-0,425742574257426	-3,82178217821782
49505	3110	1940	1595	47510,7727050781	10,5148514851485	-1,06930693069307	-4,48514851485149
49665	3136	1945	1592	47515,6555175781	10,7722772277228	-1,01980198019802	-4,51485148514852
49825	3128	1931	1595	47520,5383300781	10,6930693069307	-1,15841584158416	-4,48514851485149
49985	3119	1900	1586	47525,4211425781	10,6039603960396	-1,46534653465347	-4,57425742574257
50145	3109	1948	1613	47530,3039550781	10,5049504950495	-0,99009900990099	-4,30693069306931
50305	3111	1959	1634	47535,1867675781	10,5247524752475	-0,881188118811881	-4,0990099009901
50465	3081	1977	1636	47540,0695800781	10,2277227722772	-0,702970297029703	-4,07920792079208
50625	3065	2046	1675	47544,9523925781	10,0693069306931	-0,0198019801980198	-3,69306930693069
50785	2501	1849	1886	47549,8352050781	4,48514851485149	-1,97029702970297	-1,6039603960396
50945	2814	1925	1768	47554,7180175781	7,58415841584158	-1,21782178217822	-2,77227722772277
51105	2945	2028	1771	47559,6008300781	8,88118811881188	-0,198019801980198	-2,74257425742574
51265	2887	1912	1701	47564,4836425781	8,30693069306931	-1,34653465346535	-3,43564356435644
51425	2901	1885	1746	47569,3664550781	8,44554455445545	-1,61386138613861	-2,99009900990099
51585	2921	1853	1767	47574,2492675781	8,64356435643564	-1,93069306930693	-2,78217821782178
51745	2932	1772	1715	47579,1320800781	8,75247524752475	-2,73267326732673	-3,2970297029703
51905	4068	2379	2058	47584,0148925781	20	3,27722772277228	0,099009900990099
52065	2421	1643	1674	47588,8977050781	3,69306930693069	-4,00990099009901	-3,7029702970297
52225	3024	1726	1674	47593,7805175781	9,66336633663366	-3,18811881188119	-3,7029702970297
52385	3331	1752	1749	47598,6633300781	12,7029702970297	-2,93069306930693	-2,96039603960396
52545	3088	1588	1792	47603,5461425781	10,2970297029703	-4,55445544554455	-2,53465346534653
52705	2495	1436	1644	47608,4289550781	4,42574257425743	-6,05940594059406	-4
52865	2780	1441	1638	47613,3117675781	7,24752475247525	-6,00990099009901	-4,05940594059406
53025	3178	1417	1671	47618,1945800781	11,1881188118812	-6,24752475247525	-3,73267326732673
53185	3428	1323	1630	47623,0773925781	13,6633663366337	-7,17821782178218	-4,13861386138614
53345	2436	1292	1482	47627,9602050781	3,84158415841584	-7,48514851485149	-5,6039603960396
53505	2329	1388	1619	47632,8430175781	2,78217821782178	-6,53465346534654	-4,24752475247525
53665	2453	1375	1513	47637,7258300781	4,00990099009901	-6,66336633663366	-5,2970297029703
53825	3312	1265	1477	47642,6086425781	12,5148514851485	-7,75247524752475	-5,65346534653465
53985	2466	1801	1918	47647,4914550781	4,13861386138614	-2,44554455445545	-1,28712871287129
54145	2493	1974	1820	47652,3742675781	4,40594059405941	-0,732673267326733	-2,25742574257426
54305	3099	1571	1524	47657,2570800781	10,4059405940594	-4,72277227722772	-5,18811881188119
54465	2678	1724	1751	47662,1398925781	6,23762376237624	-3,20792079207921	-2,94059405940594
54625	2704	1634	1768	47667,0227050781	6,4950495049505	-4,0990099009901	-2,77227722772277
54785	2636	1566	1784	47671,9055175781	5,82178217821782	-4,77227722772277	-2,61386138613861
54945	2533	1489	1803	47676,7883300781	4,8019801980198	-5,53465346534654	-2,42574257425743
55105	2581	1360	1795	47681,6711425781	5,27722772277228	-6,81188118811881	-2,50495049504951
55265	2553	1261	1720	47686,5539550781	5	-7,79207920792079	-3,24752475247525
55425	2537	1160	1662	47691,4367675781	4,84158415841584	-8,79207920792079	-3,82178217821782
55585	2478	1082	1668	47696,3195800781	4,25742574257426	-9,56435643564356	-3,76237623762376
55745	2413	1066	1691	47701,2023925781	3,61386138613861	-9,72277227722772	-3,53465346534653
55905	2331	1056	1690	47706,0852050781	2,8019801980198	-9,82178217821782	-3,54455445544554
56065	2264	1055	1701	47710,9680175781	2,13861386138614	-9,83168316831683	-3,43564356435644
56225	2228	1039	1744	47715,8508300781	1,78217821782178	-9,99009900990099	-3,00990099009901
56385	2174	1055	1771	47720,7336425781	1,24752475247525	-9,83168316831683	-2,74257425742574
56545	2130	1076	1824	47725,6164550781	0,811881188118812	-9,62376237623762	-2,21782178217822
56705	2130	1143	1797	47730,4992675781	0,811881188118812	-8,96039603960396	-2,48514851485149
56865	2124	1134	1766	47735,3820800781	0,752475247524752	-9,04950495049505	-2,79207920792079
57025	2100	1130	1789	47740,2648925781	0,514851485148515	-9,08910891089109	-2,56435643564356
57185	2037	1154	1802	47745,1477050781	-0,108910891089109	-8,85148514851485	-2,43564356435644
57345	1962	1136	1800	47750,0305175781	-0,851485148514851	-9,02970297029703	-2,45544554455446
57505	1935	1106	1765	47754,9133300781	-1,11881188118812	-9,32673267326733	-2,8019801980198
57665	1963	1159	1715	47759,7961425781	-0,841584158415842	-8,8019801980198	-3,2970297029703
57825	1969	1162	1665	47764,6789550781	-0,782178217821782	-8,77227722772277	-3,79207920792079
57985	1940	1198	1667	47769,5617675781	-1,06930693069307	-8,41584158415842	-3,77227722772277
58145	1945	1263	1712	47774,4445800781	-1,01980198019802	-7,77227722772277	-3,32673267326733
58305	1938	1298	1713	47779,3273925781	-1,08910891089109	-7,42574257425743	-3,31683168316832
58465	1870	1296	1696	47784,2102050781	-1,76237623762376	-7,44554455445545	-3,48514851485149
58625	1890	1308	1675	47789,0930175781	-1,56435643564356	-7,32673267326733	-3,69306930693069
58785	1743	1296	1704	47793,9758300781	-3,01980198019802	-7,44554455445545	-3,40594059405941
58945	1657	1276	1802	47798,8586425781	-3,87128712871287	-7,64356435643564	-2,43564356435644
59105	1638	1240	1881	47803,7414550781	-4,05940594059406	-8	-1,65346534653465
59265	1593	1280	1797	47808,6242675781	-4,50495049504951	-7,6039603960396	-2,48514851485149
59425	1616	1277	1731	47813,5070800781	-4,27722772277228	-7,63366336633663	-3,13861386138614
59585	1606	1307	1647	47818,3898925781	-4,37623762376238	-7,33663366336634	-3,97029702970297
59745	1568	1306	1622	47823,2727050781	-4,75247524752475	-7,34653465346535	-4,21782178217822
59905	1532	1325	1614	47828,1555175781	-5,10891089108911	-7,15841584158416	-4,2970297029703
60065	1510	1341	1644	47833,0383300781	-5,32673267326733	-7	-4
60225	1494	1291	1699	47837,9211425781	-5,48514851485149	-7,4950495049505	-3,45544554455446
60385	1517	1233	1727	47842,8039550781	-5,25742574257426	-8,06930693069307	-3,17821782178218
60545	1579	1259	1778	47847,6867675781	-4,64356435643564	-7,81188118811881	-2,67326732673267
60705	1559	1364	1759	47852,5695800781	-4,84158415841584	-6,77227722772277	-2,86138613861386
60865	1556	1396	1721	47857,4523925781	-4,87128712871287	-6,45544554455446	-3,23762376237624
61025	1451	1400	1754	47862,3352050781	-5,91089108910891	-6,41584158415842	-2,91089108910891
61185	1321	1407	1764	47867,2180175781	-7,1980198019802	-6,34653465346535	-2,81188118811881
61345	1294	1414	1742	47872,1008300781	-7,46534653465347	-6,27722772277228	-3,02970297029703
61505	1269	1390	1778	47876,9836425781	-7,71287128712871	-6,51485148514852	-2,67326732673267
61665	1228	1351	1777	47881,8664550781	-8,11881188118812	-6,9009900990099	-2,68316831683168
61825	1213	1391	1799	47886,7492675781	-8,26732673267327	-6,50495049504951	-2,46534653465347
61985	1225	1373	1778	47891,6320800781	-8,14851485148515	-6,68316831683168	-2,67326732673267
62145	1213	1435	1775	47896,5148925781	-8,26732673267327	-6,06930693069307	-2,7029702970297
62305	42	41	2211	47901,3977050781	-19,8613861386139	-19,8712871287129	1,61386138613861
62465	773	1129	1777	47906,2805175781	-12,6237623762376	-9,0990099009901	-2,68316831683168
62625	1238	1413	1775	47911,1633300781	-8,01980198019802	-6,28712871287129	-2,7029702970297
62785	1498	1715	1758	47916,0461425781	-5,44554455445545	-3,2970297029703	-2,87128712871287
62945	1524	1607	1794	47920,9289550781	-5,18811881188119	-4,36633663366337	-2,51485148514851
63105	1511	1591	1815	47925,8117675781	-5,31683168316832	-4,52475247524753	-2,30693069306931
63265	1404	1503	1747	47930,6945800781	-6,37623762376238	-5,3960396039604	-2,98019801980198
63425	1524	1626	1683	47935,5773925781	-5,18811881188119	-4,17821782178218	-3,61386138613861
63585	1477	1558	1673	47940,4602050781	-5,65346534653465	-4,85148514851485	-3,71287128712871
63745	1302	1420	1577	47945,3430175781	-7,38613861386139	-6,21782178217822	-4,66336633663366
63905	1284	1452	1573	47950,2258300781	-7,56435643564356	-5,9009900990099	-4,7029702970297
64065	1160	1335	1561	47955,1086425781	-8,79207920792079	-7,05940594059406	-4,82178217821782
64225	1233	1400	1598	47959,9914550781	-8,06930693069307	-6,41584158415842	-4,45544554455446
64385	1200	1428	1603	47964,8742675781	-8,3960396039604	-6,13861386138614	-4,40594059405941
64545	1190	1493	1693	47969,7570800781	-8,4950495049505	-5,4950495049505	-3,51485148514851
64705	1131	1495	1730	47974,6398925781	-9,07920792079208	-5,47524752475248	-3,14851485148515
64865	1126	1552	1726	47979,5227050781	-9,12871287128713	-4,91089108910891	-3,18811881188119
65025	1158	1547	1744	47984,4055175781	-8,81188118811881	-4,96039603960396	-3,00990099009901
65185	1151	1526	1758	47989,2883300781	-8,88118811881188	-5,16831683168317	-2,87128712871287
65345	1131	1573	1742	47994,1711425781	-9,07920792079208	-4,7029702970297	-3,02970297029703
65505	1140	1585	1731	47999,0539550781	-8,99009900990099	-4,58415841584158	-3,13861386138614
129	1122	1580	1702	48003,9367675781	-9,16831683168317	-4,63366336633663	-3,42574257425743
289	1159	1535	1698	48008,8195800781	-8,8019801980198	-5,07920792079208	-3,46534653465347
449	1159	1523	1704	48013,7023925781	-8,8019801980198	-5,1980198019802	-3,40594059405941
609	1165	1538	1646	48018,5852050781	-8,74257425742574	-5,04950495049505	-3,98019801980198
769	1136	1522	1682	48023,4680175781	-9,02970297029703	-5,20792079207921	-3,62376237623762
929	1176	1517	1682	48028,3508300781	-8,63366336633663	-5,25742574257426	-3,62376237623762
1089	1204	1564	1716	48033,2336425781	-8,35643564356436	-4,79207920792079	-3,28712871287129
1249	1088	1464	1715	48038,1164550781	-9,5049504950495	-5,78217821782178	-3,2970297029703
1409	1170	1627	1744	48042,9992675781	-8,69306930693069	-4,16831683168317	-3,00990099009901
1569	1132	1615	1791	48047,8820800781	-9,06930693069307	-4,28712871287129	-2,54455445544554
1729	1088	1567	1738	48052,7648925781	-9,5049504950495	-4,76237623762376	-3,06930693069307
1889	1145	1566	1763	48057,6477050781	-8,94059405940594	-4,77227722772277	-2,82178217821782
2049	1157	1605	1749	48062,5305175781	-8,82178217821782	-4,38613861386139	-2,96039603960396
2209	1121	1646	1699	48067,4133300781	-9,17821782178218	-3,98019801980198	-3,45544554455446
2369	1132	1584	1671	48072,2961425781	-9,06930693069307	-4,59405940594059	-3,73267326732673
2529	1144	1587	1699	48077,1789550781	-8,95049504950495	-4,56435643564356	-3,45544554455446
2689	1132	1581	1719	48082,0617675781	-9,06930693069307	-4,62376237623762	-3,25742574257426
2849	1093	1611	1695	48086,9445800781	-9,45544554455446	-4,32673267326733	-3,4950495049505
3009	1048	1634	1695	48091,8273925781	-9,9009900990099	-4,0990099009901	-3,4950495049505
3169	1092	1643	1723	48096,7102050781	-9,46534653465346	-4,00990099009901	-3,21782178217822
3329	1079	1666	1762	48101,5930175781	-9,59405940594059	-3,78217821782178	-2,83168316831683
3489	1103	1691	1727	48106,4758300781	-9,35643564356436	-3,53465346534653	-3,17821782178218
3649	1099	1695	1718	48111,3586425781	-9,3960396039604	-3,4950495049505	-3,26732673267327
3809	1066	1688	1727	48116,2414550781	-9,72277227722772	-3,56435643564356	-3,17821782178218
3969	1077	1695	1726	48121,1242675781	-9,61386138613861	-3,4950495049505	-3,18811881188119
4129	1096	1679	1683	48126,0070800781	-9,42574257425743	-3,65346534653465	-3,61386138613861
4289	1095	1713	1701	48130,8898925781	-9,43564356435644	-3,31683168316832	-3,43564356435644
4449	1075	1705	1707	48135,7727050781	-9,63366336633663	-3,3960396039604	-3,37623762376238
4609	1078	1749	1718	48140,6555175781	-9,6039603960396	-2,96039603960396	-3,26732673267327
4769	1056	1784	1717	48145,5383300781	-9,82178217821782	-2,61386138613861	-3,27722772277228
4929	1062	1779	1714	48150,4211425781	-9,76237623762376	-2,66336633663366	-3,30693069306931
5089	1050	1785	1736	48155,3039550781	-9,88118811881188	-2,6039603960396	-3,08910891089109
5249	1019	1815	1692	48160,1867675781	-10,1881188118812	-2,30693069306931	-3,52475247524752
5409	1008	1810	1632	48165,0695800781	-10,2970297029703	-2,35643564356436	-4,11881188118812
5569	992	1835	1647	48169,9523925781	-10,4554455445545	-2,10891089108911	-3,97029702970297
5729	987	1819	1627	48174,8352050781	-10,5049504950495	-2,26732673267327	-4,16831683168317
5889	955	1818	1617	48179,7180175781	-10,8217821782178	-2,27722772277228	-4,26732673267327
6049	955	1820	1657	48184,6008300781	-10,8217821782178	-2,25742574257426	-3,87128712871287
6209	982	1840	1668	48189,4836425781	-10,5544554455446	-2,05940594059406	-3,76237623762376
6369	992	1834	1634	48194,3664550781	-10,4554455445545	-2,11881188118812	-4,0990099009901
6529	993	1806	1649	48199,2492675781	-10,4455445544554	-2,3960396039604	-3,95049504950495
6689	996	1810	1655	48204,1320800781	-10,4158415841584	-2,35643564356436	-3,89108910891089
6849	1032	1808	1662	48209,0148925781	-10,0594059405941	-2,37623762376238	-3,82178217821782
7009	1035	1813	1675	48213,8977050781	-10,029702970297	-2,32673267326733	-3,69306930693069
7169	968	1805	1686	48218,7805175781	-10,6930693069307	-2,40594059405941	-3,58415841584158
7329	1004	1887	1753	48223,6633300781	-10,3366336633663	-1,59405940594059	-2,92079207920792
7489	1009	1860	1767	48228,5461425781	-10,2871287128713	-1,86138613861386	-2,78217821782178
7649	1009	1881	1733	48233,4289550781	-10,2871287128713	-1,65346534653465	-3,11881188118812
7809	1016	1868	1750	48238,3117675781	-10,2178217821782	-1,78217821782178	-2,95049504950495
7969	1018	1876	1720	48243,1945800781	-10,1980198019802	-1,7029702970297	-3,24752475247525
8129	1007	1910	1714	48248,0773925781	-10,3069306930693	-1,36633663366337	-3,30693069306931
8289	993	1905	1688	48252,9602050781	-10,4455445544554	-1,41584158415842	-3,56435643564356
8449	985	1924	1715	48257,8430175781	-10,5247524752475	-1,22772277227723	-3,2970297029703
8609	976	1919	1688	48262,7258300781	-10,6138613861386	-1,27722772277228	-3,56435643564356
8769	987	1922	1689	48267,6086425781	-10,5049504950495	-1,24752475247525	-3,55445544554455
8929	999	1922	1682	48272,4914550781	-10,3861386138614	-1,24752475247525	-3,62376237623762
9089	989	1917	1646	48277,3742675781	-10,4851485148515	-1,2970297029703	-3,98019801980198
9249	977	1928	1667	48282,2570800781	-10,6039603960396	-1,18811881188119	-3,77227722772277
9409	990	1911	1619	48287,1398925781	-10,4752475247525	-1,35643564356436	-4,24752475247525
9569	1022	1918	1646	48292,0227050781	-10,1584158415842	-1,28712871287129	-3,98019801980198
9729	1022	1914	1617	48296,9055175781	-10,1584158415842	-1,32673267326733	-4,26732673267327
9889	1020	1903	1654	48301,7883300781	-10,1782178217822	-1,43564356435644	-3,9009900990099
10049	1010	1911	1672	48306,6711425781	-10,2772277227723	-1,35643564356436	-3,72277227722772
10209	997	1928	1679	48311,5539550781	-10,4059405940594	-1,18811881188119	-3,65346534653465
10369	997	1922	1667	48316,4367675781	-10,4059405940594	-1,24752475247525	-3,77227722772277
10529	1001	1942	1676	48321,3195800781	-10,3663366336634	-1,04950495049505	-3,68316831683168
10689	1024	1946	1685	48326,2023925781	-10,1386138613861	-1,00990099009901	-3,59405940594059
10849	1007	1927	1671	48331,0852050781	-10,3069306930693	-1,1980198019802	-3,73267326732673
11009	1032	1919	1685	48335,9680175781	-10,0594059405941	-1,27722772277228	-3,59405940594059
11169	1033	1955	1670	48340,8508300781	-10,0495049504951	-0,920792079207921	-3,74257425742574
11329	1027	1954	1688	48345,7336425781	-10,1089108910891	-0,930693069306931	-3,56435643564356
11489	1029	1957	1705	48350,6164550781	-10,0891089108911	-0,900990099009901	-3,3960396039604
11649	1052	1953	1705	48355,4992675781	-9,86138613861386	-0,940594059405941	-3,3960396039604
11809	1018	1962	1700	48360,3820800781	-10,1980198019802	-0,851485148514851	-3,44554455445545
11969	1033	1975	1682	48365,2648925781	-10,0495049504951	-0,722772277227723	-3,62376237623762
12129	1042	2011	1655	48370,1477050781	-9,96039603960396	-0,366336633663366	-3,89108910891089
12289	1037	1994	1657	48375,0305175781	-10,009900990099	-0,534653465346535	-3,87128712871287
12449	1047	2008	1671	48379,9133300781	-9,91089108910891	-0,396039603960396	-3,73267326732673
12609	1021	2019	1680	48384,7961425781	-10,1683168316832	-0,287128712871287	-3,64356435643564
12769	1026	2025	1666	48389,6789550781	-10,1188118811881	-0,227722772277228	-3,78217821782178
12929	1640	2686	1693	48394,5617675781	-4,03960396039604	6,31683168316832	-3,51485148514851
13089	1011	2217	1715	48399,4445800781	-10,2673267326733	1,67326732673267	-3,2970297029703
13249	980	1804	1833	48404,3273925781	-10,5742574257426	-2,41584158415842	-2,12871287128713
13409	981	1809	1665	48409,2102050781	-10,5643564356436	-2,36633663366337	-3,79207920792079
13569	1016	2015	1566	48414,0930175781	-10,2178217821782	-0,326732673267327	-4,77227722772277
13729	976	2059	1486	48418,9758300781	-10,6138613861386	0,108910891089109	-5,56435643564356
13889	1001	2046	1589	48423,8586425781	-10,3663366336634	-0,0198019801980198	-4,54455445544555
14049	993	2063	1695	48428,7414550781	-10,4455445544554	0,148514851485149	-3,4950495049505
14209	969	2045	1818	48433,6242675781	-10,6831683168317	-0,0297029702970297	-2,27722772277228
14369	948	2006	1868	48438,5070800781	-10,8910891089109	-0,415841584158416	-1,78217821782178
14529	965	2040	1882	48443,3898925781	-10,7227722772277	-0,0792079207920792	-1,64356435643564
14689	978	2065	1832	48448,2727050781	-10,5940594059406	0,168316831683168	-2,13861386138614
14849	935	2079	1811	48453,1555175781	-11,019801980198	0,306930693069307	-2,34653465346535
15009	946	2055	1742	48458,0383300781	-10,9108910891089	0,0693069306930693	-3,02970297029703
15169	1020	2052	1757	48462,9211425781	-10,1782178217822	0,0396039603960396	-2,88118811881188
15329	1014	2127	1719	48467,8039550781	-10,2376237623762	0,782178217821782	-3,25742574257426
15489	981	2048	1691	48472,6867675781	-10,5643564356436	0	-3,53465346534653
15649	989	2071	1635	48477,5695800781	-10,4851485148515	0,227722772277228	-4,08910891089109
15809	988	2043	1605	48482,4523925781	-10,4950495049505	-0,0495049504950495	-4,38613861386139
15969	992	2067	1567	48487,3352050781	-10,4554455445545	0,188118811881188	-4,76237623762376
16129	991	2064	1573	48492,2180175781	-10,4653465346535	0,158415841584158	-4,7029702970297
16289	981	2081	1600	48497,1008300781	-10,5643564356436	0,326732673267327	-4,43564356435644
16449	972	2071	1629	48501,9836425781	-10,6534653465347	0,227722772277228	-4,14851485148515
16609	980	2048	1640	48506,8664550781	-10,5742574257426	0	-4,03960396039604
16769	980	2084	1641	48511,7492675781	-10,5742574257426	0,356435643564356	-4,02970297029703
16929	990	2043	1641	48516,6320800781	-10,4752475247525	-0,0495049504950495	-4,02970297029703
17089	980	2079	1659	48521,5148925781	-10,5742574257426	0,306930693069307	-3,85148514851485
17249	979	2079	1661	48526,3977050781	-10,5841584158416	0,306930693069307	-3,83168316831683
17409	963	2060	1743	48531,2805175781	-10,7425742574257	0,118811881188119	-3,01980198019802
17569	982	2075	1747	48536,1633300781	-10,5544554455446	0,267326732673267	-2,98019801980198
17729	995	2075	1747	48541,0461425781	-10,4257425742574	0,267326732673267	-2,98019801980198
17889	989	2090	1771	48545,9289550781	-10,4851485148515	0,415841584158416	-2,74257425742574
18049	974	2042	1721	48550,8117675781	-10,6336633663366	-0,0594059405940594	-3,23762376237624
18209	989	2033	1725	48555,6945800781	-10,4851485148515	-0,148514851485149	-3,1980198019802
18369	990	2056	1714	48560,5773925781	-10,4752475247525	0,0792079207920792	-3,30693069306931
18529	978	2064	1684	48565,4602050781	-10,5940594059406	0,158415841584158	-3,6039603960396
18689	985	2121	1707	48570,3430175781	-10,5247524752475	0,722772277227723	-3,37623762376238
18849	991	2090	1727	48575,2258300781	-10,4653465346535	0,415841584158416	-3,17821782178218
19009	979	2021	1701	48580,1086425781	-10,5841584158416	-0,267326732673267	-3,43564356435644
19169	980	2013	1699	48584,9914550781	-10,5742574257426	-0,346534653465347	-3,45544554455446
19329	995	2078	1668	48589,8742675781	-10,4257425742574	0,297029702970297	-3,76237623762376
19489	976	2056	1717	48594,7570800781	-10,6138613861386	0,0792079207920792	-3,27722772277228
19649	980	2066	1710	48599,6398925781	-10,5742574257426	0,178217821782178	-3,34653465346535
19809	1008	2071	1721	48604,5227050781	-10,2970297029703	0,227722772277228	-3,23762376237624
19969	1006	2058	1741	48609,4055175781	-10,3168316831683	0,099009900990099	-3,03960396039604
20129	992	2059	1734	48614,2883300781	-10,4554455445545	0,108910891089109	-3,10891089108911
20289	1009	2071	1713	48619,1711425781	-10,2871287128713	0,227722772277228	-3,31683168316832
20449	982	2054	1698	48624,0539550781	-10,5544554455446	0,0594059405940594	-3,46534653465347
20609	994	2047	1673	48628,9367675781	-10,4356435643564	-0,0099009900990099	-3,71287128712871
20769	1008	2066	1712	48633,8195800781	-10,2970297029703	0,178217821782178	-3,32673267326733
20929	1014	2117	2007	48638,7023925781	-10,2376237623762	0,683168316831683	-0,405940594059406
21089	1003	2075	1927	48643,5852050781	-10,3465346534653	0,267326732673267	-1,1980198019802
21249	993	2094	1843	48648,4680175781	-10,4455445544554	0,455445544554455	-2,02970297029703
21409	961	2066	1773	48653,3508300781	-10,7623762376238	0,178217821782178	-2,72277227722772
21569	980	2051	1719	48658,2336425781	-10,5742574257426	0,0297029702970297	-3,25742574257426
21729	983	2034	1694	48663,1164550781	-10,5445544554455	-0,138613861386139	-3,50495049504951
21889	1000	2142	1759	48667,9992675781	-10,3762376237624	0,930693069306931	-2,86138613861386
22049	983	2124	1760	48672,8820800781	-10,5445544554455	0,752475247524752	-2,85148514851485
22209	974	2044	1772	48677,7648925781	-10,6336633663366	-0,0396039603960396	-2,73267326732673
22369	1010	2041	1753	48682,6477050781	-10,2772277227723	-0,0693069306930693	-2,92079207920792
22529	994	2075	1746	48687,5305175781	-10,4356435643564	0,267326732673267	-2,99009900990099
22689	980	2081	1755	48692,4133300781	-10,5742574257426	0,326732673267327	-2,9009900990099
22849	988	2067	1762	48697,2961425781	-10,4950495049505	0,188118811881188	-2,83168316831683
23009	984	2049	1786	48702,1789550781	-10,5346534653465	0,0099009900990099	-2,59405940594059
23169	1001	2086	1816	48707,0617675781	-10,3663366336634	0,376237623762376	-2,2970297029703
23329	987	2060	1798	48711,9445800781	-10,5049504950495	0,118811881188119	-2,47524752475248
23489	958	2047	1793	48716,8273925781	-10,7920792079208	-0,0099009900990099	-2,52475247524752
23649	990	2054	1800	48721,7102050781	-10,4752475247525	0,0594059405940594	-2,45544554455446
23809	954	2034	1766	48726,5930175781	-10,8316831683168	-0,138613861386139	-2,79207920792079
23969	1001	2044	1746	48731,4758300781	-10,3663366336634	-0,0396039603960396	-2,99009900990099
24129	992	2044	1748	48736,3586425781	-10,4554455445545	-0,0396039603960396	-2,97029702970297
24289	980	2056	1729	48741,2414550781	-10,5742574257426	0,0792079207920792	-3,15841584158416
24449	998	2047	1713	48746,1242675781	-10,3960396039604	-0,0099009900990099	-3,31683168316832
24609	966	2054	1713	48751,0070800781	-10,7128712871287	0,0594059405940594	-3,31683168316832
24769	997	2066	1743	48755,8898925781	-10,4059405940594	0,178217821782178	-3,01980198019802
24929	983	2066	1758	48760,7727050781	-10,5445544554455	0,178217821782178	-2,87128712871287
25089	994	2082	1745	48765,6555175781	-10,4356435643564	0,336633663366337	-3
25249	978	2055	1776	48770,5383300781	-10,5940594059406	0,0693069306930693	-2,69306930693069
25409	950	2050	1755	48775,4211425781	-10,8712871287129	0,0198019801980198	-2,9009900990099
25569	1019	2072	1766	48780,3039550781	-10,1881188118812	0,237623762376238	-2,79207920792079
25729	974	2052	1749	48785,1867675781	-10,6336633663366	0,0396039603960396	-2,96039603960396
25889	991	2081	1712	48790,0695800781	-10,4653465346535	0,326732673267327	-3,32673267326733
26049	984	2068	1768	48794,9523925781	-10,5346534653465	0,198019801980198	-2,77227722772277
26209	983	2065	1774	48799,8352050781	-10,5445544554455	0,168316831683168	-2,71287128712871
26369	992	2073	1775	48804,7180175781	-10,4554455445545	0,247524752475248	-2,7029702970297
26529	992	2064	1769	48809,6008300781	-10,4554455445545	0,158415841584158	-2,76237623762376
26689	976	2066	1745	48814,4836425781	-10,6138613861386	0,178217821782178	-3
26849	969	2071	1746	48819,3664550781	-10,6831683168317	0,227722772277228	-2,99009900990099
27009	995	2079	1763	48824,2492675781	-10,4257425742574	0,306930693069307	-2,82178217821782
27169	1010	2058	1788	48829,1320800781	-10,2772277227723	0,099009900990099	-2,57425742574257
27329	1006	2089	1804	48834,0148925781	-10,3168316831683	0,405940594059406	-2,41584158415842
27489	963	2103	1794	48838,8977050781	-10,7425742574257	0,544554455445545	-2,51485148514851
27649	977	2076	1805	48843,7805175781	-10,6039603960396	0,277227722772277	-2,40594059405941
27809	985	2048	1798	48848,6633300781	-10,5247524752475	0	-2,47524752475248
27969	987	2068	1786	48853,5461425781	-10,5049504950495	0,198019801980198	-2,59405940594059
28129	986	2067	1780	48858,4289550781	-10,5148514851485	0,188118811881188	-2,65346534653465
28289	981	2077	1763	48863,3117675781	-10,5643564356436	0,287128712871287	-2,82178217821782
28449	992	2075	1782	48868,1945800781	-10,4554455445545	0,267326732673267	-2,63366336633663
28609	993	2073	1788	48873,0773925781	-10,4455445544554	0,247524752475248	-2,57425742574257
28769	976	2073	1769	48877,9602050781	-10,6138613861386	0,247524752475248	-2,76237623762376
28929	990	2087	1774	48882,8430175781	-10,4752475247525	0,386138613861386	-2,71287128712871
29089	993	2056	1785	48887,7258300781	-10,4455445544554	0,0792079207920792	-2,6039603960396
29249	999	2058	1778	48892,6086425781	-10,3861386138614	0,099009900990099	-2,67326732673267
29409	1003	2074	1779	48897,4914550781	-10,3465346534653	0,257425742574257	-2,66336633663366
29569	990	2069	1796	48902,3742675781	-10,4752475247525	0,207920792079208	-2,4950495049505
29729	978	2067	1811	48907,2570800781	-10,5940594059406	0,188118811881188	-2,34653465346535
29889	978	2082	1795	48912,1398925781	-10,5940594059406	0,336633663366337	-2,50495049504951
30049	996	2091	1792	48917,0227050781	-10,4158415841584	0,425742574257426	-2,53465346534653
30209	994	2068	1761	48921,9055175781	-10,4356435643564	0,198019801980198	-2,84158415841584
30369	1005	2091	1784	48926,7883300781	-10,3267326732673	0,425742574257426	-2,61386138613861
30529	993	2085	1805	48931,6711425781	-10,4455445544554	0,366336633663366	-2,40594059405941
30689	992	2104	1881	48936,5539550781	-10,4554455445545	0,554455445544555	-1,65346534653465
30849	1006	2070	1855	48941,4367675781	-10,3168316831683	0,217821782178218	-1,91089108910891
31009	994	2067	1823	48946,3195800781	-10,4356435643564	0,188118811881188	-2,22772277227723
31169	984	2082	1775	48951,2023925781	-10,5346534653465	0,336633663366337	-2,7029702970297
31329	981	2059	1768	48956,0852050781	-10,5643564356436	0,108910891089109	-2,77227722772277
31489	1023	2022	1764	48960,9680175781	-10,1485148514851	-0,257425742574257	-2,81188118811881
31649	1038	2009	1836	48965,8508300781	-10	-0,386138613861386	-2,0990099009901
31809	554	1947	1695	48970,7336425781	-14,7920792079208	-1	-3,4950495049505
31969	963	2109	1458	48975,6164550781	-10,7425742574257	0,603960396039604	-5,84158415841584
32129	988	2049	1742	48980,4992675781	-10,4950495049505	0,0099009900990099	-3,02970297029703
32289	981	2068	1774	48985,3820800781	-10,5643564356436	0,198019801980198	-2,71287128712871
32449	1008	2060	1757	48990,2648925781	-10,2970297029703	0,118811881188119	-2,88118811881188
32609	992	2053	1790	48995,1477050781	-10,4554455445545	0,0495049504950495	-2,55445544554455
32769	984	2075	1791	49000,0305175781	-10,5346534653465	0,267326732673267	-2,54455445544554
32929	993	2063	1786	49004,9133300781	-10,4455445544554	0,148514851485149	-2,59405940594059
33089	974	2049	1793	49009,7961425781	-10,6336633663366	0,0099009900990099	-2,52475247524752
33249	995	2050	1795	49014,6789550781	-10,4257425742574	0,0198019801980198	-2,50495049504951
33409	990	2045	1787	49019,5617675781	-10,4752475247525	-0,0297029702970297	-2,58415841584158
33569	970	2076	1774	49024,4445800781	-10,6732673267327	0,277227722772277	-2,71287128712871
33729	1021	2056	1845	49029,3273925781	-10,1683168316832	0,0792079207920792	-2,00990099009901
33889	999	2007	1783	49034,2102050781	-10,3861386138614	-0,405940594059406	-2,62376237623762
34049	962	2079	1628	49039,0930175781	-10,7524752475248	0,306930693069307	-4,15841584158416
34209	1012	2098	1685	49043,9758300781	-10,2574257425743	0,495049504950495	-3,59405940594059
34369	991	2080	1686	49048,8586425781	-10,4653465346535	0,316831683168317	-3,58415841584158
34529	962	2076	1711	49053,7414550781	-10,7524752475248	0,277227722772277	-3,33663366336634
34689	980	2087	1748	49058,6242675781	-10,5742574257426	0,386138613861386	-2,97029702970297
34849	999	2066	1745	49063,5070800781	-10,3861386138614	0,178217821782178	-3
35009	1008	2055	1759	49068,3898925781	-10,2970297029703	0,0693069306930693	-2,86138613861386
35169	980	2062	1744	49073,2727050781	-10,5742574257426	0,138613861386139	-3,00990099009901
35329	997	2067	1734	49078,1555175781	-10,4059405940594	0,188118811881188	-3,10891089108911
35489	996	2080	1733	49083,0383300781	-10,4158415841584	0,316831683168317	-3,11881188118812
35649	1008	2039	1725	49087,9211425781	-10,2970297029703	-0,0891089108910891	-3,1980198019802
35809	987	2088	1752	49092,8039550781	-10,5049504950495	0,396039603960396	-2,93069306930693
35969	994	2065	1728	49097,6867675781	-10,4356435643564	0,168316831683168	-3,16831683168317
36129	990	2060	1755	49102,5695800781	-10,4752475247525	0,118811881188119	-2,9009900990099
36289	1002	2060	1749	49107,4523925781	-10,3564356435644	0,118811881188119	-2,96039603960396
36449	973	2053	1759	49112,3352050781	-10,6435643564356	0,0495049504950495	-2,86138613861386
36609	987	2068	1746	49117,2180175781	-10,5049504950495	0,198019801980198	-2,99009900990099
36769	980	2051	1747	49122,1008300781	-10,5742574257426	0,0297029702970297	-2,98019801980198
36929	972	2062	1719	49126,9836425781	-10,6534653465347	0,138613861386139	-3,25742574257426
37089	976	2069	1734	49131,8664550781	-10,6138613861386	0,207920792079208	-3,10891089108911
37249	972	2078	1722	49136,7492675781	-10,6534653465347	0,297029702970297	-3,22772277227723
37409	997	2079	1756	49141,6320800781	-10,4059405940594	0,306930693069307	-2,89108910891089
37569	983	2066	1746	49146,5148925781	-10,5445544554455	0,178217821782178	-2,99009900990099
37729	995	2074	1720	49151,3977050781	-10,4257425742574	0,257425742574257	-3,24752475247525
37889	974	2061	1799	49156,2805175781	-10,6336633663366	0,128712871287129	-2,46534653465347
38049	978	2065	1792	49161,1633300781	-10,5940594059406	0,168316831683168	-2,53465346534653
38209	992	2077	1769	49166,0461425781	-10,4554455445545	0,287128712871287	-2,76237623762376
38369	1007	2048	1780	49170,9289550781	-10,3069306930693	0	-2,65346534653465
38529	995	2023	1771	49175,8117675781	-10,4257425742574	-0,247524752475248	-2,74257425742574
38689	995	2106	1735	49180,6945800781	-10,4257425742574	0,574257425742574	-3,0990099009901
38849	979	2065	1765	49185,5773925781	-10,5841584158416	0,168316831683168	-2,8019801980198
39009	996	2056	1774	49190,4602050781	-10,4158415841584	0,0792079207920792	-2,71287128712871
39169	966	2055	1759	49195,3430175781	-10,7128712871287	0,0693069306930693	-2,86138613861386
39329	975	2070	1762	49200,2258300781	-10,6237623762376	0,217821782178218	-2,83168316831683
39489	988	2068	1751	49205,1086425781	-10,4950495049505	0,198019801980198	-2,94059405940594
39649	989	2063	1776	49209,9914550781	-10,4851485148515	0,148514851485149	-2,69306930693069
39809	983	2061	1760	49214,8742675781	-10,5445544554455	0,128712871287129	-2,85148514851485
39969	987	2045	1751	49219,7570800781	-10,5049504950495	-0,0297029702970297	-2,94059405940594
40129	982	2055	1770	49224,6398925781	-10,5544554455446	0,0693069306930693	-2,75247524752475
40289	988	2076	1777	49229,5227050781	-10,4950495049505	0,277227722772277	-2,68316831683168
40449	1001	2065	1742	49234,4055175781	-10,3663366336634	0,168316831683168	-3,02970297029703
40609	997	2072	1743	49239,2883300781	-10,4059405940594	0,237623762376238	-3,01980198019802
40769	976	2065	1778	49244,1711425781	-10,6138613861386	0,168316831683168	-2,67326732673267
40929	1003	2063	1755	49249,0539550781	-10,3465346534653	0,148514851485149	-2,9009900990099
41089	989	2048	1753	49253,9367675781	-10,4851485148515	0	-2,92079207920792
41249	975	2058	1747	49258,8195800781	-10,6237623762376	0,099009900990099	-2,98019801980198
41409	980	2072	1741	49263,7023925781	-10,5742574257426	0,237623762376238	-3,03960396039604
41569	979	2073	1757	49268,5852050781	-10,5841584158416	0,247524752475248	-2,88118811881188
41729	1000	2057	1761	49273,4680175781	-10,3762376237624	0,0891089108910891	-2,84158415841584
41889	976	2065	1777	49278,3508300781	-10,6138613861386	0,168316831683168	-2,68316831683168
42049	1002	2066	1766	49283,2336425781	-10,3564356435644	0,178217821782178	-2,79207920792079
42209	983	2056	1775	49288,1164550781	-10,5445544554455	0,0792079207920792	-2,7029702970297
42369	957	2050	1738	49292,9992675781	-10,8019801980198	0,0198019801980198	-3,06930693069307
42529	1004	2059	1749	49297,8820800781	-10,3366336633663	0,108910891089109	-2,96039603960396
42689	1003	2071	1744	49302,7648925781	-10,3465346534653	0,227722772277228	-3,00990099009901
42849	987	2081	1756	49307,6477050781	-10,5049504950495	0,326732673267327	-2,89108910891089
43009	985	2082	1745	49312,5305175781	-10,5247524752475	0,336633663366337	-3
43169	984	2092	1748	49317,4133300781	-10,5346534653465	0,435643564356436	-2,97029702970297
43329	999	2069	1766	49322,2961425781	-10,3861386138614	0,207920792079208	-2,79207920792079
43489	1001	2065	1770	49327,1789550781	-10,3663366336634	0,168316831683168	-2,75247524752475
43649	976	2068	1759	49332,0617675781	-10,6138613861386	0,198019801980198	-2,86138613861386
43809	989	2078	1767	49336,9445800781	-10,4851485148515	0,297029702970297	-2,78217821782178
43969	999	2059	1743	49341,8273925781	-10,3861386138614	0,108910891089109	-3,01980198019802
44129	995	2072	1764	49346,7102050781	-10,4257425742574	0,237623762376238	-2,81188118811881
44289	991	2062	1775	49351,5930175781	-10,4653465346535	0,138613861386139	-2,7029702970297
44449	978	2075	1755	49356,4758300781	-10,5940594059406	0,267326732673267	-2,9009900990099
44609	976	2066	1788	49361,3586425781	-10,6138613861386	0,178217821782178	-2,57425742574257
44769	971	2057	1747	49366,2414550781	-10,6633663366337	0,0891089108910891	-2,98019801980198
44929	990	2047	1751	49371,1242675781	-10,4752475247525	-0,0099009900990099	-2,94059405940594
45089	1001	2071	1765	49376,0070800781	-10,3663366336634	0,227722772277228	-2,8019801980198
45249	967	2054	1765	49380,8898925781	-10,7029702970297	0,0594059405940594	-2,8019801980198
45409	984	2068	1773	49385,7727050781	-10,5346534653465	0,198019801980198	-2,72277227722772
45569	977	2057	1753	49390,6555175781	-10,6039603960396	0,0891089108910891	-2,92079207920792
45729	998	2075	1760	49395,5383300781	-10,3960396039604	0,267326732673267	-2,85148514851485
45889	980	2088	1761	49400,4211425781	-10,5742574257426	0,396039603960396	-2,84158415841584
46049	977	2079	1748	49405,3039550781	-10,6039603960396	0,306930693069307	-2,97029702970297
46209	992	2070	1761	49410,1867675781	-10,4554455445545	0,217821782178218	-2,84158415841584
46369	992	2052	1770	49415,0695800781	-10,4554455445545	0,0396039603960396	-2,75247524752475
46529	996	2071	1741	49419,9523925781	-10,4158415841584	0,227722772277228	-3,03960396039604
46689	984	2074	1755	49424,8352050781	-10,5346534653465	0,257425742574257	-2,9009900990099
46849	971	2058	1758	49429,7180175781	-10,6633663366337	0,099009900990099	-2,87128712871287
47009	984	2080	1775	49434,6008300781	-10,5346534653465	0,316831683168317	-2,7029702970297
47169	990	2046	1776	49439,4836425781	-10,4752475247525	-0,0198019801980198	-2,69306930693069
47329	977	2069	1745	49444,3664550781	-10,6039603960396	0,207920792079208	-3
47489	1011	2070	1772	49449,2492675781	-10,2673267326733	0,217821782178218	-2,73267326732673
47649	990	2048	1775	49454,1320800781	-10,4752475247525	0	-2,7029702970297
47809	983	2065	1767	49459,0148925781	-10,5445544554455	0,168316831683168	-2,78217821782178
47969	1000	2079	1745	49463,8977050781	-10,3762376237624	0,306930693069307	-3
48129	961	2075	1782	49468,7805175781	-10,7623762376238	0,267326732673267	-2,63366336633663
48289	989	2072	1732	49473,6633300781	-10,4851485148515	0,237623762376238	-3,12871287128713
48449	966	2059	1770	49478,5461425781	-10,7128712871287	0,108910891089109	-2,75247524752475
48609	988	2043	1753	49483,4289550781	-10,4950495049505	-0,0495049504950495	-2,92079207920792
48769	990	2059	1747	49488,3117675781	-10,4752475247525	0,108910891089109	-2,98019801980198
48929	981	2079	1774	49493,1945800781	-10,5643564356436	0,306930693069307	-2,71287128712871
49089	957	2068	1746	49498,0773925781	-10,8019801980198	0,198019801980198	-2,99009900990099
49249	1026	2046	1772	49502,9602050781	-10,1188118811881	-0,0198019801980198	-2,73267326732673
49409	969	2064	1763	49507,8430175781	-10,6831683168317	0,158415841584158	-2,82178217821782
49569	989	2067	1759	49512,7258300781	-10,4851485148515	0,188118811881188	-2,86138613861386
49729	998	2072	1769	49517,6086425781	-10,3960396039604	0,237623762376238	-2,76237623762376
49889	974	2068	1775	49522,4914550781	-10,6336633663366	0,198019801980198	-2,7029702970297
50049	981	2048	1767	49527,3742675781	-10,5643564356436	0	-2,78217821782178
50209	967	2045	1756	49532,2570800781	-10,7029702970297	-0,0297029702970297	-2,89108910891089
50369	984	2059	1737	49537,1398925781	-10,5346534653465	0,108910891089109	-3,07920792079208
50529	984	2055	1719	49542,0227050781	-10,5346534653465	0,0693069306930693	-3,25742574257426
50689	997	2053	1719	49546,9055175781	-10,4059405940594	0,0495049504950495	-3,25742574257426
50849	987	2075	1762	49551,7883300781	-10,5049504950495	0,267326732673267	-2,83168316831683
51009	1003	2061	1779	49556,6711425781	-10,3465346534653	0,128712871287129	-2,66336633663366
51169	997	2059	1812	49561,5539550781	-10,4059405940594	0,108910891089109	-2,33663366336634
51329	964	2076	1759	49566,4367675781	-10,7326732673267	0,277227722772277	-2,86138613861386
51489	977	2062	1749	49571,3195800781	-10,6039603960396	0,138613861386139	-2,96039603960396
51649	971	2060	1768	49576,2023925781	-10,6633663366337	0,118811881188119	-2,77227722772277
51809	984	2056	1744	49581,0852050781	-10,5346534653465	0,0792079207920792	-3,00990099009901
51969	986	2069	1754	49585,9680175781	-10,5148514851485	0,207920792079208	-2,91089108910891
52129	988	2066	1753	49590,8508300781	-10,4950495049505	0,178217821782178	-2,92079207920792
52289	987	2064	1774	49595,7336425781	-10,5049504950495	0,158415841584158	-2,71287128712871
52449	978	2081	1764	49600,6164550781	-10,5940594059406	0,326732673267327	-2,81188118811881
52609	996	2104	1719	49605,4992675781	-10,4158415841584	0,554455445544555	-3,25742574257426
52769	984	2051	1726	49610,3820800781	-10,5346534653465	0,0297029702970297	-3,18811881188119
52929	998	2060	1750	49615,2648925781	-10,3960396039604	0,118811881188119	-2,95049504950495
53089	977	2053	1779	49620,1477050781	-10,6039603960396	0,0495049504950495	-2,66336633663366
53249	1000	2069	1778	49625,0305175781	-10,3762376237624	0,207920792079208	-2,67326732673267
53409	990	2075	1736	49629,9133300781	-10,4752475247525	0,267326732673267	-3,08910891089109
53569	993	2072	1740	49634,7961425781	-10,4455445544554	0,237623762376238	-3,04950495049505
53729	976	2073	1742	49639,6789550781	-10,6138613861386	0,247524752475248	-3,02970297029703
53889	988	2080	1753	49644,5617675781	-10,4950495049505	0,316831683168317	-2,92079207920792
54049	995	2068	1757	49649,4445800781	-10,4257425742574	0,198019801980198	-2,88118811881188
54209	992	2056	1755	49654,3273925781	-10,4554455445545	0,0792079207920792	-2,9009900990099
54369	990	2079	1774	49659,2102050781	-10,4752475247525	0,306930693069307	-2,71287128712871
54529	989	2057	1755	49664,0930175781	-10,4851485148515	0,0891089108910891	-2,9009900990099
54689	980	2045	1775	49668,9758300781	-10,5742574257426	-0,0297029702970297	-2,7029702970297
54849	968	2053	1752	49673,8586425781	-10,6930693069307	0,0495049504950495	-2,93069306930693
55009	989	2076	1755	49678,7414550781	-10,4851485148515	0,277227722772277	-2,9009900990099
55169	980	2048	1759	49683,6242675781	-10,5742574257426	0	-2,86138613861386
55329	985	2061	1739	49688,5070800781	-10,5247524752475	0,128712871287129	-3,05940594059406
55489	983	2047	1759	49693,3898925781	-10,5445544554455	-0,0099009900990099	-2,86138613861386
55649	996	2071	1752	49698,2727050781	-10,4158415841584	0,227722772277228	-2,93069306930693
55809	982	2048	1754	49703,1555175781	-10,5544554455446	0	-2,91089108910891
55969	981	2070	1741	49708,0383300781	-10,5643564356436	0,217821782178218	-3,03960396039604
56129	965	2069	1733	49712,9211425781	-10,7227722772277	0,207920792079208	-3,11881188118812
56289	976	2068	1755	49717,8039550781	-10,6138613861386	0,198019801980198	-2,9009900990099
56449	974	2056	1757	49722,6867675781	-10,6336633663366	0,0792079207920792	-2,88118811881188
56609	997	2059	1772	49727,5695800781	-10,4059405940594	0,108910891089109	-2,73267326732673
56769	993	2070	1755	49732,4523925781	-10,4455445544554	0,217821782178218	-2,9009900990099
56929	1006	2064	1752	49737,3352050781	-10,3168316831683	0,158415841584158	-2,93069306930693
57089	981	2057	1765	49742,2180175781	-10,5643564356436	0,0891089108910891	-2,8019801980198
57249	964	2058	1758	49747,1008300781	-10,7326732673267	0,099009900990099	-2,87128712871287
57409	993	2056	1758	49751,9836425781	-10,4455445544554	0,0792079207920792	-2,87128712871287
57569	984	2073	1762	49756,8664550781	-10,5346534653465	0,247524752475248	-2,83168316831683
57729	992	2046	1751	49761,7492675781	-10,4554455445545	-0,0198019801980198	-2,94059405940594
57889	971	2070	1787	49766,6320800781	-10,6633663366337	0,217821782178218	-2,58415841584158
58049	1028	2058	1743	49771,5148925781	-10,0990099009901	0,099009900990099	-3,01980198019802
58209	1000	2042	1767	49776,3977050781	-10,3762376237624	-0,0594059405940594	-2,78217821782178
58369	985	2072	1750	49781,2805175781	-10,5247524752475	0,237623762376238	-2,95049504950495
58529	978	2082	1748	49786,1633300781	-10,5940594059406	0,336633663366337	-2,97029702970297
58689	1002	2070	1731	49791,0461425781	-10,3564356435644	0,217821782178218	-3,13861386138614
58849	1001	2072	1759	49795,9289550781	-10,3663366336634	0,237623762376238	-2,86138613861386
59009	974	2064	1754	49800,8117675781	-10,6336633663366	0,158415841584158	-2,91089108910891
59169	991	2076	1815	49805,6945800781	-10,4653465346535	0,277227722772277	-2,30693069306931
59329	995	2077	1775	49810,5773925781	-10,4257425742574	0,287128712871287	-2,7029702970297
59489	975	2041	1732	49815,4602050781	-10,6237623762376	-0,0693069306930693	-3,12871287128713
59649	1007	2065	1719	49820,3430175781	-10,3069306930693	0,168316831683168	-3,25742574257426
59809	979	2097	1719	49825,2258300781	-10,5841584158416	0,485148514851485	-3,25742574257426
59969	1001	2052	1748	49830,1086425781	-10,3663366336634	0,0396039603960396	-2,97029702970297
60129	973	2076	1756	49834,9914550781	-10,6435643564356	0,277227722772277	-2,89108910891089
60289	983	2062	1769	49839,8742675781	-10,5445544554455	0,138613861386139	-2,76237623762376
60449	981	2045	1773	49844,7570800781	-10,5643564356436	-0,0297029702970297	-2,72277227722772
60609	973	2073	1752	49849,6398925781	-10,6435643564356	0,247524752475248	-2,93069306930693
60769	980	2058	1749	49854,5227050781	-10,5742574257426	0,099009900990099	-2,96039603960396
60929	981	2014	1747	49859,4055175781	-10,5643564356436	-0,336633663366337	-2,98019801980198
61089	993	2092	1746	49864,2883300781	-10,4455445544554	0,435643564356436	-2,99009900990099
61249	977	2062	1706	49869,1711425781	-10,6039603960396	0,138613861386139	-3,38613861386139
61409	985	2071	1759	49874,0539550781	-10,5247524752475	0,227722772277228	-2,86138613861386
61569	975	2060	1735	49878,9367675781	-10,6237623762376	0,118811881188119	-3,0990099009901
61729	990	2066	1739	49883,8195800781	-10,4752475247525	0,178217821782178	-3,05940594059406
61889	992	2091	1787	49888,7023925781	-10,4554455445545	0,425742574257426	-2,58415841584158
62049	990	2061	1774	49893,5852050781	-10,4752475247525	0,128712871287129	-2,71287128712871
62209	991	2046	1752	49898,4680175781	-10,4653465346535	-0,0198019801980198	-2,93069306930693
62369	981	2078	1730	49903,3508300781	-10,5643564356436	0,297029702970297	-3,14851485148515
62529	988	2040	1740	49908,2336425781	-10,4950495049505	-0,0792079207920792	-3,04950495049505
62689	992	2057	1759	49913,1164550781	-10,4554455445545	0,0891089108910891	-2,86138613861386
62849	985	2040	1659	49917,9992675781	-10,5247524752475	-0,0792079207920792	-3,85148514851485
63009	990	2052	1712	49922,8820800781	-10,4752475247525	0,0396039603960396	-3,32673267326733
63169	982	2057	1779	49927,7648925781	-10,5544554455446	0,0891089108910891	-2,66336633663366
63329	970	2038	1760	49932,6477050781	-10,6732673267327	-0,099009900990099	-2,85148514851485
63489	976	2076	1732	49937,5305175781	-10,6138613861386	0,277227722772277	-3,12871287128713
63649	991	2064	1750	49942,4133300781	-10,4653465346535	0,158415841584158	-2,95049504950495
63809	981	2042	1776	49947,2961425781	-10,5643564356436	-0,0594059405940594	-2,69306930693069
63969	981	2078	1760	49952,1789550781	-10,5643564356436	0,297029702970297	-2,85148514851485
64129	964	2072	1734	49957,0617675781	-10,7326732673267	0,237623762376238	-3,10891089108911
64289	982	2044	1749	49961,9445800781	-10,5544554455446	-0,0396039603960396	-2,96039603960396
64449	998	2061	1786	49966,8273925781	-10,3960396039604	0,128712871287129	-2,59405940594059
64609	989	2052	1783	49971,7102050781	-10,4851485148515	0,0396039603960396	-2,62376237623762
64769	966	2054	1741	49976,5930175781	-10,7128712871287	0,0594059405940594	-3,03960396039604
64929	989	2062	1740	49981,4758300781	-10,4851485148515	0,138613861386139	-3,04950495049505
65089	980	2066	1744	49986,3586425781	-10,5742574257426	0,178217821782178	-3,00990099009901
65249	1005	2099	1727	49991,2414550781	-10,3267326732673	0,504950495049505	-3,17821782178218
65409	971	2060	1746	49996,1242675781	-10,6633663366337	0,118811881188119	-2,99009900990099
33	979	2052	1774	50001,0070800781	-10,5841584158416	0,0396039603960396	-2,71287128712871
193	984	2049	1759	50005,8898925781	-10,5346534653465	0,0099009900990099	-2,86138613861386
353	996	2060	1778	50010,7727050781	-10,4158415841584	0,118811881188119	-2,67326732673267
513	981	2038	1773	50015,6555175781	-10,5643564356436	-0,099009900990099	-2,72277227722772
673	966	1975	1776	50020,5383300781	-10,7128712871287	-0,722772277227723	-2,69306930693069
833	973	2001	1775	50025,4211425781	-10,6435643564356	-0,465346534653465	-2,7029702970297
993	908	2060	1761	50030,3039550781	-11,2871287128713	0,118811881188119	-2,84158415841584
1153	954	2051	1752	50035,1867675781	-10,8316831683168	0,0297029702970297	-2,93069306930693
1313	993	2039	1754	50040,0695800781	-10,4455445544554	-0,0891089108910891	-2,91089108910891
1473	972	2041	1741	50044,9523925781	-10,6534653465347	-0,0693069306930693	-3,03960396039604
1633	931	2031	1747	50049,8352050781	-11,0594059405941	-0,168316831683168	-2,98019801980198
1793	933	2039	1723	50054,7180175781	-11,039603960396	-0,0891089108910891	-3,21782178217822
1953	930	2024	1713	50059,6008300781	-11,0693069306931	-0,237623762376238	-3,31683168316832
2113	932	2023	1715	50064,4836425781	-11,0495049504951	-0,247524752475248	-3,2970297029703
2273	933	2000	1729	50069,3664550781	-11,039603960396	-0,475247524752475	-3,15841584158416
2433	905	2026	1732	50074,2492675781	-11,3168316831683	-0,217821782178218	-3,12871287128713
2593	885	1998	1719	50079,1320800781	-11,5148514851485	-0,495049504950495	-3,25742574257426
2753	895	2032	1723	50084,0148925781	-11,4158415841584	-0,158415841584158	-3,21782178217822
2913	875	2022	1696	50088,8977050781	-11,6138613861386	-0,257425742574257	-3,48514851485149
3073	874	2018	1687	50093,7805175781	-11,6237623762376	-0,297029702970297	-3,57425742574257
3233	865	2022	1683	50098,6633300781	-11,7128712871287	-0,257425742574257	-3,61386138613861
3393	855	2013	1687	50103,5461425781	-11,8118811881188	-0,346534653465347	-3,57425742574257
3553	852	1962	1698	50108,4289550781	-11,8415841584158	-0,851485148514851	-3,46534653465347
3713	879	1975	1677	50113,3117675781	-11,5742574257426	-0,722772277227723	-3,67326732673267
3873	931	1999	1679	50118,1945800781	-11,0594059405941	-0,485148514851485	-3,65346534653465
4033	985	1968	1723	50123,0773925781	-10,5247524752475	-0,792079207920792	-3,21782178217822
4193	965	1936	1712	50127,9602050781	-10,7227722772277	-1,10891089108911	-3,32673267326733
4353	1008	1960	1731	50132,8430175781	-10,2970297029703	-0,871287128712871	-3,13861386138614
4513	996	1876	1704	50137,7258300781	-10,4158415841584	-1,7029702970297	-3,40594059405941
4673	989	1847	1754	50142,6086425781	-10,4851485148515	-1,99009900990099	-2,91089108910891
4833	1001	1894	1787	50147,4914550781	-10,3663366336634	-1,52475247524752	-2,58415841584158
4993	1040	1864	1790	50152,3742675781	-9,98019801980198	-1,82178217821782	-2,55445544554455
5153	1075	1870	1786	50157,2570800781	-9,63366336633663	-1,76237623762376	-2,59405940594059
5313	1058	1832	1797	50162,1398925781	-9,8019801980198	-2,13861386138614	-2,48514851485149
5473	1042	1831	1781	50167,0227050781	-9,96039603960396	-2,14851485148515	-2,64356435643564
5633	1043	1785	1774	50171,9055175781	-9,95049504950495	-2,6039603960396	-2,71287128712871
5793	1051	1791	1755	50176,7883300781	-9,87128712871287	-2,54455445544554	-2,9009900990099
5953	1075	1754	1772	50181,6711425781	-9,63366336633663	-2,91089108910891	-2,73267326732673
6113	1056	1729	1754	50186,5539550781	-9,82178217821782	-3,15841584158416	-2,91089108910891
6273	1091	1769	1722	50191,4367675781	-9,47524752475248	-2,76237623762376	-3,22772277227723
6433	1129	1724	1778	50196,3195800781	-9,0990099009901	-3,20792079207921	-2,67326732673267
6593	1107	1704	1757	50201,2023925781	-9,31683168316832	-3,40594059405941	-2,88118811881188
6753	1110	1691	1775	50206,0852050781	-9,28712871287129	-3,53465346534653	-2,7029702970297
6913	1123	1674	1715	50210,9680175781	-9,15841584158416	-3,7029702970297	-3,2970297029703
7073	1144	1628	1789	50215,8508300781	-8,95049504950495	-4,15841584158416	-2,56435643564356
7233	1193	1553	1757	50220,7336425781	-8,46534653465346	-4,9009900990099	-2,88118811881188
7393	1190	1556	1757	50225,6164550781	-8,4950495049505	-4,87128712871287	-2,88118811881188
7553	1198	1550	1735	50230,4992675781	-8,41584158415842	-4,93069306930693	-3,0990099009901
7713	1211	1550	1736	50235,3820800781	-8,28712871287129	-4,93069306930693	-3,08910891089109
7873	1238	1515	1728	50240,2648925781	-8,01980198019802	-5,27722772277228	-3,16831683168317
8033	1262	1508	1732	50245,1477050781	-7,78217821782178	-5,34653465346535	-3,12871287128713
8193	1244	1486	1717	50250,0305175781	-7,96039603960396	-5,56435643564356	-3,27722772277228
8353	1263	1434	1723	50254,9133300781	-7,77227722772277	-6,07920792079208	-3,21782178217822
8513	1263	1403	1717	50259,7961425781	-7,77227722772277	-6,38613861386139	-3,27722772277228
8673	1278	1406	1679	50264,6789550781	-7,62376237623762	-6,35643564356436	-3,65346534653465
8833	1278	1375	1666	50269,5617675781	-7,62376237623762	-6,66336633663366	-3,78217821782178
8993	1306	1347	1687	50274,4445800781	-7,34653465346535	-6,94059405940594	-3,57425742574257
9153	1321	1335	1705	50279,3273925781	-7,1980198019802	-7,05940594059406	-3,3960396039604
9313	1309	1323	1659	50284,2102050781	-7,31683168316832	-7,17821782178218	-3,85148514851485
9473	1324	1320	1647	50289,0930175781	-7,16831683168317	-7,20792079207921	-3,97029702970297
9633	1354	1311	1687	50293,9758300781	-6,87128712871287	-7,2970297029703	-3,57425742574257
9793	1389	1287	1655	50298,8586425781	-6,52475247524753	-7,53465346534654	-3,89108910891089
9953	1417	1272	1678	50303,7414550781	-6,24752475247525	-7,68316831683168	-3,66336633663366
10113	1402	1290	1672	50308,6242675781	-6,3960396039604	-7,50495049504951	-3,72277227722772
10273	1431	1260	1652	50313,5070800781	-6,10891089108911	-7,8019801980198	-3,92079207920792
10433	1440	1271	1670	50318,3898925781	-6,01980198019802	-7,69306930693069	-3,74257425742574
10593	1479	1262	1695	50323,2727050781	-5,63366336633663	-7,78217821782178	-3,4950495049505
10753	1474	1289	1664	50328,1555175781	-5,68316831683168	-7,51485148514852	-3,8019801980198
10913	1497	1254	1676	50333,0383300781	-5,45544554455446	-7,86138613861386	-3,68316831683168
11073	1520	1235	1668	50337,9211425781	-5,22772277227723	-8,04950495049505	-3,76237623762376
11233	1566	1233	1639	50342,8039550781	-4,77227722772277	-8,06930693069307	-4,04950495049505
11393	1559	1221	1642	50347,6867675781	-4,84158415841584	-8,18811881188119	-4,01980198019802
11553	1580	1237	1641	50352,5695800781	-4,63366336633663	-8,02970297029703	-4,02970297029703
11713	1584	1236	1649	50357,4523925781	-4,59405940594059	-8,03960396039604	-3,95049504950495
11873	1590	1243	1672	50362,3352050781	-4,53465346534654	-7,97029702970297	-3,72277227722772
12033	1621	1242	1650	50367,2180175781	-4,22772277227723	-7,98019801980198	-3,94059405940594
12193	1632	1250	1663	50372,1008300781	-4,11881188118812	-7,9009900990099	-3,81188118811881
12353	1647	1238	1680	50376,9836425781	-3,97029702970297	-8,01980198019802	-3,64356435643564
12513	1688	1205	1699	50381,8664550781	-3,56435643564356	-8,34653465346535	-3,45544554455446
12673	1730	1246	1693	50386,7492675781	-3,14851485148515	-7,94059405940594	-3,51485148514851
12833	1755	1273	1663	50391,6320800781	-2,9009900990099	-7,67326732673267	-3,81188118811881
12993	1777	1248	1625	50396,5148925781	-2,68316831683168	-7,92079207920792	-4,18811881188119
13153	1764	1203	1651	50401,3977050781	-2,81188118811881	-8,36633663366337	-3,93069306930693
13313	1772	1193	1609	50406,2805175781	-2,73267326732673	-8,46534653465346	-4,34653465346535
13473	1799	1163	1586	50411,1633300781	-2,46534653465347	-8,76237623762376	-4,57425742574257
13633	1788	1167	1603	50416,0461425781	-2,57425742574257	-8,72277227722772	-4,40594059405941
13793	1776	1143	1598	50420,9289550781	-2,69306930693069	-8,96039603960396	-4,45544554455446
13953	1810	1134	1620	50425,8117675781	-2,35643564356436	-9,04950495049505	-4,23762376237624
14113	1813	1156	1636	50430,6945800781	-2,32673267326733	-8,83168316831683	-4,07920792079208
14273	1817	1152	1631	50435,5773925781	-2,28712871287129	-8,87128712871287	-4,12871287128713
14433	1808	1150	1629	50440,4602050781	-2,37623762376238	-8,89108910891089	-4,14851485148515
14593	1810	1158	1634	50445,3430175781	-2,35643564356436	-8,81188118811881	-4,0990099009901
14753	1858	1181	1642	50450,2258300781	-1,88118811881188	-8,58415841584158	-4,01980198019802
14913	1853	1171	1664	50455,1086425781	-1,93069306930693	-8,68316831683168	-3,8019801980198
15073	1873	1169	1646	50459,9914550781	-1,73267326732673	-8,7029702970297	-3,98019801980198
15233	1845	1175	1650	50464,8742675781	-2,00990099009901	-8,64356435643564	-3,94059405940594
15393	1880	1122	1661	50469,7570800781	-1,66336633663366	-9,16831683168317	-3,83168316831683
15553	1885	1147	1672	50474,6398925781	-1,61386138613861	-8,92079207920792	-3,72277227722772
15713	1898	1129	1676	50479,5227050781	-1,48514851485149	-9,0990099009901	-3,68316831683168
15873	1870	1131	1663	50484,4055175781	-1,76237623762376	-9,07920792079208	-3,81188118811881
16033	1878	1143	1674	50489,2883300781	-1,68316831683168	-8,96039603960396	-3,7029702970297
16193	1897	1141	1651	50494,1711425781	-1,4950495049505	-8,98019801980198	-3,93069306930693
16353	1874	1147	1662	50499,0539550781	-1,72277227722772	-8,92079207920792	-3,82178217821782
16513	1883	1125	1653	50503,9367675781	-1,63366336633663	-9,13861386138614	-3,91089108910891
16673	1903	1115	1698	50508,8195800781	-1,43564356435644	-9,23762376237624	-3,46534653465347
16833	1931	1077	1671	50513,7023925781	-1,15841584158416	-9,61386138613861	-3,73267326732673
16993	1952	1020	1635	50518,5852050781	-0,95049504950495	-10,1782178217822	-4,08910891089109
17153	1952	1000	1598	50523,4680175781	-0,95049504950495	-10,3762376237624	-4,45544554455446
17313	1936	991	1615	50528,3508300781	-1,10891089108911	-10,4653465346535	-4,28712871287129
17473	1932	1005	1643	50533,2336425781	-1,14851485148515	-10,3267326732673	-4,00990099009901
17633	1944	1037	1663	50538,1164550781	-1,02970297029703	-10,009900990099	-3,81188118811881
17793	1945	1015	1663	50542,9992675781	-1,01980198019802	-10,2277227722772	-3,81188118811881
17953	1946	1049	1736	50547,8820800781	-1,00990099009901	-9,89108910891089	-3,08910891089109
18113	1947	1067	1683	50552,7648925781	-1	-9,71287128712871	-3,61386138613861
18273	1964	1081	1693	50557,6477050781	-0,831683168316832	-9,57425742574257	-3,51485148514851
18433	1964	1080	1673	50562,5305175781	-0,831683168316832	-9,58415841584158	-3,71287128712871
18593	1953	1099	1663	50567,4133300781	-0,940594059405941	-9,3960396039604	-3,81188118811881
18753	1949	1109	1660	50572,2961425781	-0,98019801980198	-9,2970297029703	-3,84158415841584
18913	1939	1105	1677	50577,1789550781	-1,07920792079208	-9,33663366336634	-3,67326732673267
19073	1961	1147	1681	50582,0617675781	-0,861386138613861	-8,92079207920792	-3,63366336633663
19233	1946	1102	1666	50586,9445800781	-1,00990099009901	-9,36633663366337	-3,78217821782178
19393	1908	1122	1715	50591,8273925781	-1,38613861386139	-9,16831683168317	-3,2970297029703
19553	1972	1116	1690	50596,7102050781	-0,752475247524752	-9,22772277227723	-3,54455445544554
19713	1983	1133	1675	50601,5930175781	-0,643564356435644	-9,05940594059406	-3,69306930693069
19873	1971	1137	1676	50606,4758300781	-0,762376237623762	-9,01980198019802	-3,68316831683168
20033	1964	1154	1700	50611,3586425781	-0,831683168316832	-8,85148514851485	-3,44554455445545
20193	1956	1134	1703	50616,2414550781	-0,910891089108911	-9,04950495049505	-3,41584158415842
20353	1961	1121	1679	50621,1242675781	-0,861386138613861	-9,17821782178218	-3,65346534653465
20513	1952	1128	1675	50626,0070800781	-0,95049504950495	-9,10891089108911	-3,69306930693069
20673	1949	1144	1665	50630,8898925781	-0,98019801980198	-8,95049504950495	-3,79207920792079
20833	1931	1149	1672	50635,7727050781	-1,15841584158416	-8,9009900990099	-3,72277227722772
20993	1929	1132	1653	50640,6555175781	-1,17821782178218	-9,06930693069307	-3,91089108910891
21153	1934	1112	1644	50645,5383300781	-1,12871287128713	-9,26732673267327	-4
21313	1955	1097	1642	50650,4211425781	-0,920792079207921	-9,41584158415842	-4,01980198019802
21473	1895	1129	1663	50655,3039550781	-1,51485148514851	-9,0990099009901	-3,81188118811881
21633	1937	1147	1665	50660,1867675781	-1,0990099009901	-8,92079207920792	-3,79207920792079
21793	1897	1120	1712	50665,0695800781	-1,4950495049505	-9,18811881188119	-3,32673267326733
21953	1942	1121	1709	50669,9523925781	-1,04950495049505	-9,17821782178218	-3,35643564356436
22113	1917	1120	1691	50674,8352050781	-1,2970297029703	-9,18811881188119	-3,53465346534653
22273	1944	1134	1685	50679,7180175781	-1,02970297029703	-9,04950495049505	-3,59405940594059
22433	1952	1139	1729	50684,6008300781	-0,95049504950495	-9	-3,15841584158416
22593	2184	2275	1371	50689,4836425781	1,34653465346535	2,24752475247525	-6,7029702970297
22753	1876	940	1632	50694,3664550781	-1,7029702970297	-10,970297029703	-4,11881188118812
22913	1952	1031	1660	50699,2492675781	-0,95049504950495	-10,0693069306931	-3,84158415841584
23073	1955	1056	1681	50704,1320800781	-0,920792079207921	-9,82178217821782	-3,63366336633663
23233	1932	1125	1692	50709,0148925781	-1,14851485148515	-9,13861386138614	-3,52475247524752
23393	1961	1106	1684	50713,8977050781	-0,861386138613861	-9,32673267326733	-3,6039603960396
23553	1966	1109	1690	50718,7805175781	-0,811881188118812	-9,2970297029703	-3,54455445544554
23713	1978	1111	1695	50723,6633300781	-0,693069306930693	-9,27722772277228	-3,4950495049505
23873	1946	1114	1697	50728,5461425781	-1,00990099009901	-9,24752475247525	-3,47524752475248
24033	1972	1113	1688	50733,4289550781	-0,752475247524752	-9,25742574257426	-3,56435643564356
24193	1955	1106	1699	50738,3117675781	-0,920792079207921	-9,32673267326733	-3,45544554455446
24353	1952	1103	1695	50743,1945800781	-0,95049504950495	-9,35643564356436	-3,4950495049505
24513	1976	1116	1676	50748,0773925781	-0,712871287128713	-9,22772277227723	-3,68316831683168
24673	1961	1100	1680	50752,9602050781	-0,861386138613861	-9,38613861386139	-3,64356435643564
24833	1984	1091	1677	50757,8430175781	-0,633663366336634	-9,47524752475248	-3,67326732673267
24993	1963	1133	1671	50762,7258300781	-0,841584158415842	-9,05940594059406	-3,73267326732673
25153	1952	1122	1699	50767,6086425781	-0,95049504950495	-9,16831683168317	-3,45544554455446
25313	1957	1139	1697	50772,4914550781	-0,900990099009901	-9	-3,47524752475248
25473	2005	1139	1685	50777,3742675781	-0,425742574257426	-9	-3,59405940594059
25633	1978	1149	1694	50782,2570800781	-0,693069306930693	-8,9009900990099	-3,50495049504951
25793	1944	1093	1703	50787,1398925781	-1,02970297029703	-9,45544554455446	-3,41584158415842
25953	2082	1199	1627	50792,0227050781	0,336633663366337	-8,40594059405941	-4,16831683168317
26113	1957	1136	1724	50796,9055175781	-0,900990099009901	-9,02970297029703	-3,20792079207921
26273	1843	966	1681	50801,7883300781	-2,02970297029703	-10,7128712871287	-3,63366336633663
26433	1992	1110	1683	50806,6711425781	-0,554455445544555	-9,28712871287129	-3,61386138613861
26593	1983	1149	1665	50811,5539550781	-0,643564356435644	-8,9009900990099	-3,79207920792079
26753	2045	1147	1684	50816,4367675781	-0,0297029702970297	-8,92079207920792	-3,6039603960396
26913	2075	623	1710	50821,3195800781	0,267326732673267	-14,1089108910891	-3,34653465346535
27073	1833	1132	1671	50826,2023925781	-2,12871287128713	-9,06930693069307	-3,73267326732673
27233	1995	1110	1656	50831,0852050781	-0,524752475247525	-9,28712871287129	-3,88118811881188
27393	2003	1101	1645	50835,9680175781	-0,445544554455446	-9,37623762376238	-3,99009900990099
27553	1984	1104	1650	50840,8508300781	-0,633663366336634	-9,34653465346535	-3,94059405940594
27713	1982	1106	1670	50845,7336425781	-0,653465346534653	-9,32673267326733	-3,74257425742574
27873	2006	1109	1675	50850,6164550781	-0,415841584158416	-9,2970297029703	-3,69306930693069
28033	2020	1106	1681	50855,4992675781	-0,277227722772277	-9,32673267326733	-3,63366336633663
28193	2004	1104	1651	50860,3820800781	-0,435643564356436	-9,34653465346535	-3,93069306930693
28353	2012	1099	1655	50865,2648925781	-0,356435643564356	-9,3960396039604	-3,89108910891089
28513	1998	1094	1659	50870,1477050781	-0,495049504950495	-9,44554455445545	-3,85148514851485
28673	1993	1104	1663	50875,0305175781	-0,544554455445545	-9,34653465346535	-3,81188118811881
28833	2014	1113	1659	50879,9133300781	-0,336633663366337	-9,25742574257426	-3,85148514851485
28993	2000	1105	1655	50884,7961425781	-0,475247524752475	-9,33663366336634	-3,89108910891089
29153	2000	1082	1659	50889,6789550781	-0,475247524752475	-9,56435643564356	-3,85148514851485
29313	2014	1116	1658	50894,5617675781	-0,336633663366337	-9,22772277227723	-3,86138613861386
29473	2002	1095	1643	50899,4445800781	-0,455445544554455	-9,43564356435644	-4,00990099009901
29633	1994	1125	1648	50904,3273925781	-0,534653465346535	-9,13861386138614	-3,96039603960396
29793	1987	1121	1662	50909,2102050781	-0,603960396039604	-9,17821782178218	-3,82178217821782
29953	2000	1097	1638	50914,0930175781	-0,475247524752475	-9,41584158415842	-4,05940594059406
30113	1984	1102	1663	50918,9758300781	-0,633663366336634	-9,36633663366337	-3,81188118811881
30273	1998	1098	1642	50923,8586425781	-0,495049504950495	-9,40594059405941	-4,01980198019802
30433	2000	1112	1668	50928,7414550781	-0,475247524752475	-9,26732673267327	-3,76237623762376
30593	1994	1109	1683	50933,6242675781	-0,534653465346535	-9,2970297029703	-3,61386138613861
30753	1996	1097	1652	50938,5070800781	-0,514851485148515	-9,41584158415842	-3,92079207920792
30913	2004	1099	1661	50943,3898925781	-0,435643564356436	-9,3960396039604	-3,83168316831683
31073	2002	1127	1676	50948,2727050781	-0,455445544554455	-9,11881188118812	-3,68316831683168
31233	1997	1104	1694	50953,1555175781	-0,504950495049505	-9,34653465346535	-3,50495049504951
31393	1970	1115	1658	50958,0383300781	-0,772277227722772	-9,23762376237624	-3,86138613861386
31553	1984	1119	1661	50962,9211425781	-0,633663366336634	-9,1980198019802	-3,83168316831683
31713	1992	1133	1740	50967,8039550781	-0,554455445544555	-9,05940594059406	-3,04950495049505
31873	1998	1111	1669	50972,6867675781	-0,495049504950495	-9,27722772277228	-3,75247524752475
32033	1971	1095	1623	50977,5695800781	-0,762376237623762	-9,43564356435644	-4,20792079207921
32193	2009	1107	1608	50982,4523925781	-0,386138613861386	-9,31683168316832	-4,35643564356436
32353	2003	1093	1621	50987,3352050781	-0,445544554455446	-9,45544554455446	-4,22772277227723
32513	1973	1098	1626	50992,2180175781	-0,742574257425743	-9,40594059405941	-4,17821782178218
32673	1996	1106	1647	50997,1008300781	-0,514851485148515	-9,32673267326733	-3,97029702970297
32833	1978	1112	1657	51001,9836425781	-0,693069306930693	-9,26732673267327	-3,87128712871287
32993	1998	1124	1662	51006,8664550781	-0,495049504950495	-9,14851485148515	-3,82178217821782
33153	2004	1100	1665	51011,7492675781	-0,435643564356436	-9,38613861386139	-3,79207920792079
33313	1990	1103	1622	51016,6320800781	-0,574257425742574	-9,35643564356436	-4,21782178217822
33473	2000	1105	1639	51021,5148925781	-0,475247524752475	-9,33663366336634	-4,04950495049505
33633	1994	1085	1671	51026,3977050781	-0,534653465346535	-9,53465346534654	-3,73267326732673
33793	1975	1116	1641	51031,2805175781	-0,722772277227723	-9,22772277227723	-4,02970297029703
33953	1996	1106	1646	51036,1633300781	-0,514851485148515	-9,32673267326733	-3,98019801980198
34113	1971	1114	1671	51041,0461425781	-0,762376237623762	-9,24752475247525	-3,73267326732673
34273	1998	1124	1660	51045,9289550781	-0,495049504950495	-9,14851485148515	-3,84158415841584
34433	1988	1115	1655	51050,8117675781	-0,594059405940594	-9,23762376237624	-3,89108910891089
34593	1989	1113	1615	51055,6945800781	-0,584158415841584	-9,25742574257426	-4,28712871287129
34753	1994	1097	1631	51060,5773925781	-0,534653465346535	-9,41584158415842	-4,12871287128713
34913	1989	1105	1637	51065,4602050781	-0,584158415841584	-9,33663366336634	-4,06930693069307
35073	1993	1090	1637	51070,3430175781	-0,544554455445545	-9,48514851485148	-4,06930693069307
35233	2018	1104	1627	51075,2258300781	-0,297029702970297	-9,34653465346535	-4,16831683168317
35393	2000	1110	1639	51080,1086425781	-0,475247524752475	-9,28712871287129	-4,04950495049505
35553	2005	1099	1651	51084,9914550781	-0,425742574257426	-9,3960396039604	-3,93069306930693
35713	2007	1093	1657	51089,8742675781	-0,405940594059406	-9,45544554455446	-3,87128712871287
35873	2013	1103	1653	51094,7570800781	-0,346534653465347	-9,35643564356436	-3,91089108910891
36033	1973	1112	1619	51099,6398925781	-0,742574257425743	-9,26732673267327	-4,24752475247525
36193	1995	1112	1652	51104,5227050781	-0,524752475247525	-9,26732673267327	-3,92079207920792
36353	1985	1091	1660	51109,4055175781	-0,623762376237624	-9,47524752475248	-3,84158415841584
36513	2012	1104	1673	51114,2883300781	-0,356435643564356	-9,34653465346535	-3,71287128712871
36673	2000	1114	1667	51119,1711425781	-0,475247524752475	-9,24752475247525	-3,77227722772277
36833	1978	1105	1641	51124,0539550781	-0,693069306930693	-9,33663366336634	-4,02970297029703
36993	1997	1106	1652	51128,9367675781	-0,504950495049505	-9,32673267326733	-3,92079207920792
37153	1955	1097	1665	51133,8195800781	-0,920792079207921	-9,41584158415842	-3,79207920792079
37313	1995	1100	1635	51138,7023925781	-0,524752475247525	-9,38613861386139	-4,08910891089109
37473	1997	1108	1637	51143,5852050781	-0,504950495049505	-9,30693069306931	-4,06930693069307
37633	1991	1097	1647	51148,4680175781	-0,564356435643564	-9,41584158415842	-3,97029702970297
37793	1971	1102	1655	51153,3508300781	-0,762376237623762	-9,36633663366337	-3,89108910891089
37953	1994	1106	1607	51158,2336425781	-0,534653465346535	-9,32673267326733	-4,36633663366337
38113	1991	1125	1637	51163,1164550781	-0,564356435643564	-9,13861386138614	-4,06930693069307
38273	2004	1107	1600	51167,9992675781	-0,435643564356436	-9,31683168316832	-4,43564356435644
38433	2002	1102	1629	51172,8820800781	-0,455445544554455	-9,36633663366337	-4,14851485148515
38593	2000	1098	1636	51177,7648925781	-0,475247524752475	-9,40594059405941	-4,07920792079208
38753	1990	1105	1646	51182,6477050781	-0,574257425742574	-9,33663366336634	-3,98019801980198
38913	1996	1093	1641	51187,5305175781	-0,514851485148515	-9,45544554455446	-4,02970297029703
39073	1980	1090	1651	51192,4133300781	-0,673267326732673	-9,48514851485148	-3,93069306930693
39233	1988	1104	1651	51197,2961425781	-0,594059405940594	-9,34653465346535	-3,93069306930693
39393	2000	1101	1622	51202,1789550781	-0,475247524752475	-9,37623762376238	-4,21782178217822
39553	1994	1101	1647	51207,0617675781	-0,534653465346535	-9,37623762376238	-3,97029702970297
39713	1979	1089	1626	51211,9445800781	-0,683168316831683	-9,4950495049505	-4,17821782178218
39873	2005	1109	1618	51216,8273925781	-0,425742574257426	-9,2970297029703	-4,25742574257426
40033	2010	1110	1639	51221,7102050781	-0,376237623762376	-9,28712871287129	-4,04950495049505
40193	1997	1112	1670	51226,5930175781	-0,504950495049505	-9,26732673267327	-3,74257425742574
40353	1984	1113	1634	51231,4758300781	-0,633663366336634	-9,25742574257426	-4,0990099009901
40513	2001	1091	1639	51236,3586425781	-0,465346534653465	-9,47524752475248	-4,04950495049505
40673	2006	1097	1656	51241,2414550781	-0,415841584158416	-9,41584158415842	-3,88118811881188
40833	1996	1092	1643	51246,1242675781	-0,514851485148515	-9,46534653465346	-4,00990099009901
40993	1997	1116	1649	51251,0070800781	-0,504950495049505	-9,22772277227723	-3,95049504950495
41153	1992	1113	1633	51255,8898925781	-0,554455445544555	-9,25742574257426	-4,10891089108911
41313	1988	1092	1647	51260,7727050781	-0,594059405940594	-9,46534653465346	-3,97029702970297
41473	2011	1098	1651	51265,6555175781	-0,366336633663366	-9,40594059405941	-3,93069306930693
41633	1974	1089	1614	51270,5383300781	-0,732673267326733	-9,4950495049505	-4,2970297029703
41793	1987	1115	1633	51275,4211425781	-0,603960396039604	-9,23762376237624	-4,10891089108911
41953	1979	1114	1643	51280,3039550781	-0,683168316831683	-9,24752475247525	-4,00990099009901
42113	2000	1110	1624	51285,1867675781	-0,475247524752475	-9,28712871287129	-4,1980198019802
42273	1979	1109	1632	51290,0695800781	-0,683168316831683	-9,2970297029703	-4,11881188118812
42433	1994	1104	1636	51294,9523925781	-0,534653465346535	-9,34653465346535	-4,07920792079208
42593	1997	1085	1636	51299,8352050781	-0,504950495049505	-9,53465346534654	-4,07920792079208
42753	1984	1104	1629	51304,7180175781	-0,633663366336634	-9,34653465346535	-4,14851485148515
42913	2011	1090	1635	51309,6008300781	-0,366336633663366	-9,48514851485148	-4,08910891089109
43073	2008	1097	1662	51314,4836425781	-0,396039603960396	-9,41584158415842	-3,82178217821782
43233	1985	1093	1631	51319,3664550781	-0,623762376237624	-9,45544554455446	-4,12871287128713
43393	1990	1102	1644	51324,2492675781	-0,574257425742574	-9,36633663366337	-4
43553	1985	1094	1637	51329,1320800781	-0,623762376237624	-9,44554455445545	-4,06930693069307
43713	2013	1101	1634	51334,0148925781	-0,346534653465347	-9,37623762376238	-4,0990099009901
43873	1988	1101	1624	51338,8977050781	-0,594059405940594	-9,37623762376238	-4,1980198019802
44033	1984	1105	1630	51343,7805175781	-0,633663366336634	-9,33663366336634	-4,13861386138614
44193	1997	1094	1637	51348,6633300781	-0,504950495049505	-9,44554455445545	-4,06930693069307
44353	2007	1101	1668	51353,5461425781	-0,405940594059406	-9,37623762376238	-3,76237623762376
44513	1979	1122	1624	51358,4289550781	-0,683168316831683	-9,16831683168317	-4,1980198019802
44673	1991	1094	1658	51363,3117675781	-0,564356435643564	-9,44554455445545	-3,86138613861386
44833	1995	1097	1668	51368,1945800781	-0,524752475247525	-9,41584158415842	-3,76237623762376
44993	2017	1093	1644	51373,0773925781	-0,306930693069307	-9,45544554455446	-4
45153	1992	1125	1628	51377,9602050781	-0,554455445544555	-9,13861386138614	-4,15841584158416
45313	1973	1127	1609	51382,8430175781	-0,742574257425743	-9,11881188118812	-4,34653465346535
45473	1974	1119	1643	51387,7258300781	-0,732673267326733	-9,1980198019802	-4,00990099009901
45633	2001	1129	1650	51392,6086425781	-0,465346534653465	-9,0990099009901	-3,94059405940594
45793	1987	1099	1644	51397,4914550781	-0,603960396039604	-9,3960396039604	-4
45953	2006	1089	1646	51402,3742675781	-0,415841584158416	-9,4950495049505	-3,98019801980198
46113	1992	1079	1636	51407,2570800781	-0,554455445544555	-9,59405940594059	-4,07920792079208
46273	1983	1103	1666	51412,1398925781	-0,643564356435644	-9,35643564356436	-3,78217821782178
46433	1992	1102	1659	51417,0227050781	-0,554455445544555	-9,36633663366337	-3,85148514851485
46593	1979	1104	1659	51421,9055175781	-0,683168316831683	-9,34653465346535	-3,85148514851485
46753	1997	1115	1643	51426,7883300781	-0,504950495049505	-9,23762376237624	-4,00990099009901
46913	1989	1076	1645	51431,6711425781	-0,584158415841584	-9,62376237623762	-3,99009900990099
47073	2000	1102	1638	51436,5539550781	-0,475247524752475	-9,36633663366337	-4,05940594059406
47233	1981	1114	1642	51441,4367675781	-0,663366336633663	-9,24752475247525	-4,01980198019802
47393	1982	1108	1642	51446,3195800781	-0,653465346534653	-9,30693069306931	-4,01980198019802
47553	2008	1104	1651	51451,2023925781	-0,396039603960396	-9,34653465346535	-3,93069306930693
47713	1990	1114	1632	51456,0852050781	-0,574257425742574	-9,24752475247525	-4,11881188118812
47873	1986	1100	1639	51460,9680175781	-0,613861386138614	-9,38613861386139	-4,04950495049505
48033	2009	1088	1651	51465,8508300781	-0,386138613861386	-9,5049504950495	-3,93069306930693
48193	1997	1101	1669	51470,7336425781	-0,504950495049505	-9,37623762376238	-3,75247524752475
48353	1969	1117	1628	51475,6164550781	-0,782178217821782	-9,21782178217822	-4,15841584158416
48513	1994	1123	1628	51480,4992675781	-0,534653465346535	-9,15841584158416	-4,15841584158416
48673	1986	1118	1620	51485,3820800781	-0,613861386138614	-9,20792079207921	-4,23762376237624
48833	1991	1104	1640	51490,2648925781	-0,564356435643564	-9,34653465346535	-4,03960396039604
48993	1982	1097	1641	51495,1477050781	-0,653465346534653	-9,41584158415842	-4,02970297029703
49153	1995	1111	1639	51500,0305175781	-0,524752475247525	-9,27722772277228	-4,04950495049505
49313	1997	1101	1638	51504,9133300781	-0,504950495049505	-9,37623762376238	-4,05940594059406
49473	1995	1102	1632	51509,7961425781	-0,524752475247525	-9,36633663366337	-4,11881188118812
49633	1999	1106	1636	51514,6789550781	-0,485148514851485	-9,32673267326733	-4,07920792079208
49793	2019	1105	1653	51519,5617675781	-0,287128712871287	-9,33663366336634	-3,91089108910891
49953	1988	1097	1637	51524,4445800781	-0,594059405940594	-9,41584158415842	-4,06930693069307
50113	1994	1118	1653	51529,3273925781	-0,534653465346535	-9,20792079207921	-3,91089108910891
50273	2012	1091	1656	51534,2102050781	-0,356435643564356	-9,47524752475248	-3,88118811881188
50433	2000	1132	1638	51539,0930175781	-0,475247524752475	-9,06930693069307	-4,05940594059406
50593	1984	1096	1645	51543,9758300781	-0,633663366336634	-9,42574257425743	-3,99009900990099
50753	1984	1114	1645	51548,8586425781	-0,633663366336634	-9,24752475247525	-3,99009900990099
50913	1981	1131	1644	51553,7414550781	-0,663366336633663	-9,07920792079208	-4
51073	2008	1100	1641	51558,6242675781	-0,396039603960396	-9,38613861386139	-4,02970297029703
51233	1980	1088	1656	51563,5070800781	-0,673267326732673	-9,5049504950495	-3,88118811881188
51393	1974	1098	1631	51568,3898925781	-0,732673267326733	-9,40594059405941	-4,12871287128713
51553	1998	1102	1630	51573,2727050781	-0,495049504950495	-9,36633663366337	-4,13861386138614
51713	2005	1118	1637	51578,1555175781	-0,425742574257426	-9,20792079207921	-4,06930693069307
51873	2003	1114	1658	51583,0383300781	-0,445544554455446	-9,24752475247525	-3,86138613861386
52033	1976	1089	1641	51587,9211425781	-0,712871287128713	-9,4950495049505	-4,02970297029703
52193	2010	1097	1648	51592,8039550781	-0,376237623762376	-9,41584158415842	-3,96039603960396
52353	1988	1113	1638	51597,6867675781	-0,594059405940594	-9,25742574257426	-4,05940594059406
52513	2002	1106	1625	51602,5695800781	-0,455445544554455	-9,32673267326733	-4,18811881188119
52673	1984	1099	1649	51607,4523925781	-0,633663366336634	-9,3960396039604	-3,95049504950495
52833	1993	1114	1642	51612,3352050781	-0,544554455445545	-9,24752475247525	-4,01980198019802
52993	1979	1111	1629	51617,2180175781	-0,683168316831683	-9,27722772277228	-4,14851485148515
53153	1992	1112	1632	51622,1008300781	-0,554455445544555	-9,26732673267327	-4,11881188118812
53313	1992	1112	1636	51626,9836425781	-0,554455445544555	-9,26732673267327	-4,07920792079208
53473	2004	1098	1614	51631,8664550781	-0,435643564356436	-9,40594059405941	-4,2970297029703
53633	2007	1105	1639	51636,7492675781	-0,405940594059406	-9,33663366336634	-4,04950495049505
53793	1994	1115	1624	51641,6320800781	-0,534653465346535	-9,23762376237624	-4,1980198019802
53953	1973	1102	1664	51646,5148925781	-0,742574257425743	-9,36633663366337	-3,8019801980198
54113	1986	1106	1632	51651,3977050781	-0,613861386138614	-9,32673267326733	-4,11881188118812
54273	1994	1107	1628	51656,2805175781	-0,534653465346535	-9,31683168316832	-4,15841584158416
54433	1982	1112	1643	51661,1633300781	-0,653465346534653	-9,26732673267327	-4,00990099009901
54593	1990	1112	1649	51666,0461425781	-0,574257425742574	-9,26732673267327	-3,95049504950495
54753	2008	1099	1638	51670,9289550781	-0,396039603960396	-9,3960396039604	-4,05940594059406
54913	2014	1109	1638	51675,8117675781	-0,336633663366337	-9,2970297029703	-4,05940594059406
55073	1975	1105	1624	51680,6945800781	-0,722772277227723	-9,33663366336634	-4,1980198019802
55233	1980	1088	1668	51685,5773925781	-0,673267326732673	-9,5049504950495	-3,76237623762376
55393	1981	1088	1636	51690,4602050781	-0,663366336633663	-9,5049504950495	-4,07920792079208
55553	2014	1111	1631	51695,3430175781	-0,336633663366337	-9,27722772277228	-4,12871287128713
55713	1998	1102	1660	51700,2258300781	-0,495049504950495	-9,36633663366337	-3,84158415841584
55873	1985	1090	1650	51705,1086425781	-0,623762376237624	-9,48514851485148	-3,94059405940594
56033	2010	1097	1637	51709,9914550781	-0,376237623762376	-9,41584158415842	-4,06930693069307
56193	2010	1110	1658	51714,8742675781	-0,376237623762376	-9,28712871287129	-3,86138613861386
56353	1996	1120	1649	51719,7570800781	-0,514851485148515	-9,18811881188119	-3,95049504950495
56513	1994	1077	1641	51724,6398925781	-0,534653465346535	-9,61386138613861	-4,02970297029703
56673	1994	1116	1635	51729,5227050781	-0,534653465346535	-9,22772277227723	-4,08910891089109
56833	1990	1112	1635	51734,4055175781	-0,574257425742574	-9,26732673267327	-4,08910891089109
56993	2001	1104	1644	51739,2883300781	-0,465346534653465	-9,34653465346535	-4
57153	1998	1094	1656	51744,1711425781	-0,495049504950495	-9,44554455445545	-3,88118811881188
57313	1990	1079	1630	51749,0539550781	-0,574257425742574	-9,59405940594059	-4,13861386138614
57473	1997	1116	1644	51753,9367675781	-0,504950495049505	-9,22772277227723	-4
57633	1984	1115	1632	51758,8195800781	-0,633663366336634	-9,23762376237624	-4,11881188118812
57793	1983	1108	1650	51763,7023925781	-0,643564356435644	-9,30693069306931	-3,94059405940594
57953	1997	1124	1652	51768,5852050781	-0,504950495049505	-9,14851485148515	-3,92079207920792
58113	1988	1110	1636	51773,4680175781	-0,594059405940594	-9,28712871287129	-4,07920792079208
58273	1996	1131	1634	51778,3508300781	-0,514851485148515	-9,07920792079208	-4,0990099009901
58433	2006	1126	1630	51783,2336425781	-0,415841584158416	-9,12871287128713	-4,13861386138614
58593	2000	1120	1660	51788,1164550781	-0,475247524752475	-9,18811881188119	-3,84158415841584
58753	2003	1121	1631	51792,9992675781	-0,445544554455446	-9,17821782178218	-4,12871287128713
58913	1979	1102	1666	51797,8820800781	-0,683168316831683	-9,36633663366337	-3,78217821782178
59073	1980	1087	1642	51802,7648925781	-0,673267326732673	-9,51485148514852	-4,01980198019802
59233	1993	1096	1635	51807,6477050781	-0,544554455445545	-9,42574257425743	-4,08910891089109
59393	1978	1109	1652	51812,5305175781	-0,693069306930693	-9,2970297029703	-3,92079207920792
59553	1991	1118	1625	51817,4133300781	-0,564356435643564	-9,20792079207921	-4,18811881188119
59713	1984	1089	1631	51822,2961425781	-0,633663366336634	-9,4950495049505	-4,12871287128713
59873	1992	1092	1641	51827,1789550781	-0,554455445544555	-9,46534653465346	-4,02970297029703
60033	1991	1112	1641	51832,0617675781	-0,564356435643564	-9,26732673267327	-4,02970297029703
60193	2011	1099	1644	51836,9445800781	-0,366336633663366	-9,3960396039604	-4
60353	1992	1070	1627	51841,8273925781	-0,554455445544555	-9,68316831683168	-4,16831683168317
60513	2007	1123	1607	51846,7102050781	-0,405940594059406	-9,15841584158416	-4,36633663366337
60673	1992	1145	1649	51851,5930175781	-0,554455445544555	-8,94059405940594	-3,95049504950495
60833	1988	1091	1627	51856,4758300781	-0,594059405940594	-9,47524752475248	-4,16831683168317
60993	1984	1122	1650	51861,3586425781	-0,633663366336634	-9,16831683168317	-3,94059405940594
61153	1994	1080	1659	51866,2414550781	-0,534653465346535	-9,58415841584158	-3,85148514851485
61313	1994	1098	1636	51871,1242675781	-0,534653465346535	-9,40594059405941	-4,07920792079208
61473	2006	1093	1647	51876,0070800781	-0,415841584158416	-9,45544554455446	-3,97029702970297
61633	1999	1078	1636	51880,8898925781	-0,485148514851485	-9,6039603960396	-4,07920792079208
61793	2012	1104	1617	51885,7727050781	-0,356435643564356	-9,34653465346535	-4,26732673267327
61953	1995	1097	1643	51890,6555175781	-0,524752475247525	-9,41584158415842	-4,00990099009901
62113	1999	1086	1656	51895,5383300781	-0,485148514851485	-9,52475247524752	-3,88118811881188
62273	1984	1112	1632	51900,4211425781	-0,633663366336634	-9,26732673267327	-4,11881188118812
62433	2030	1093	1645	51905,3039550781	-0,178217821782178	-9,45544554455446	-3,99009900990099
62593	1990	1111	1651	51910,1867675781	-0,574257425742574	-9,27722772277228	-3,93069306930693
62753	1997	1116	1629	51915,0695800781	-0,504950495049505	-9,22772277227723	-4,14851485148515
62913	1999	1105	1640	51919,9523925781	-0,485148514851485	-9,33663366336634	-4,03960396039604
63073	1995	1107	1644	51924,8352050781	-0,524752475247525	-9,31683168316832	-4
63233	1996	1092	1631	51929,7180175781	-0,514851485148515	-9,46534653465346	-4,12871287128713
63393	1995	1111	1634	51934,6008300781	-0,524752475247525	-9,27722772277228	-4,0990099009901
63553	1986	1116	1634	51939,4836425781	-0,613861386138614	-9,22772277227723	-4,0990099009901
63713	2005	1104	1647	51944,3664550781	-0,425742574257426	-9,34653465346535	-3,97029702970297
63873	1987	1122	1653	51949,2492675781	-0,603960396039604	-9,16831683168317	-3,91089108910891
64033	1974	1096	1626	51954,1320800781	-0,732673267326733	-9,42574257425743	-4,17821782178218
64193	1985	1103	1638	51959,0148925781	-0,623762376237624	-9,35643564356436	-4,05940594059406
64353	2006	1111	1622	51963,8977050781	-0,415841584158416	-9,27722772277228	-4,21782178217822
64513	2005	1116	1662	51968,7805175781	-0,425742574257426	-9,22772277227723	-3,82178217821782
64673	1995	1095	1611	51973,6633300781	-0,524752475247525	-9,43564356435644	-4,32673267326733
64833	1987	1115	1650	51978,5461425781	-0,603960396039604	-9,23762376237624	-3,94059405940594
64993	2019	1109	1649	51983,4289550781	-0,287128712871287	-9,2970297029703	-3,95049504950495
65153	1998	1095	1644	51988,3117675781	-0,495049504950495	-9,43564356435644	-4
65313	1978	1096	1652	51993,1945800781	-0,693069306930693	-9,42574257425743	-3,92079207920792
65473	1986	1107	1661	51998,0773925781	-0,613861386138614	-9,31683168316832	-3,83168316831683
97	2015	1104	1643	52002,9602050781	-0,326732673267327	-9,34653465346535	-4,00990099009901
257	1986	1102	1639	52007,8430175781	-0,613861386138614	-9,36633663366337	-4,04950495049505
417	1994	1117	1636	52012,7258300781	-0,534653465346535	-9,21782178217822	-4,07920792079208
577	1992	1121	1664	52017,6086425781	-0,554455445544555	-9,17821782178218	-3,8019801980198
737	2000	1110	1660	52022,4914550781	-0,475247524752475	-9,28712871287129	-3,84158415841584
897	2006	1099	1651	52027,3742675781	-0,415841584158416	-9,3960396039604	-3,93069306930693
1057	2018	1097	1672	52032,2570800781	-0,297029702970297	-9,41584158415842	-3,72277227722772
1217	2004	1117	1660	52037,1398925781	-0,435643564356436	-9,21782178217822	-3,84158415841584
1377	2015	1103	1671	52042,0227050781	-0,326732673267327	-9,35643564356436	-3,73267326732673
1537	1998	1117	1720	52046,9055175781	-0,495049504950495	-9,21782178217822	-3,24752475247525
1697	2000	1027	1714	52051,7883300781	-0,475247524752475	-10,1089108910891	-3,30693069306931
1857	1962	1067	1671	52056,6711425781	-0,851485148514851	-9,71287128712871	-3,73267326732673
2017	1960	1070	1633	52061,5539550781	-0,871287128712871	-9,68316831683168	-4,10891089108911
2177	1949	1028	1607	52066,4367675781	-0,98019801980198	-10,0990099009901	-4,36633663366337
2337	1923	1006	1588	52071,3195800781	-1,23762376237624	-10,3168316831683	-4,55445544554455
2497	1947	1009	1586	52076,2023925781	-1	-10,2871287128713	-4,57425742574257
2657	1994	891	1589	52081,0852050781	-0,534653465346535	-11,4554455445545	-4,54455445544555
2817	1946	853	1624	52085,9680175781	-1,00990099009901	-11,8316831683168	-4,1980198019802
2977	1940	893	1606	52090,8508300781	-1,06930693069307	-11,4356435643564	-4,37623762376238
