Shimmer1	Shimmer1	Shimmer1	Shimmer1	Shimmer1	Shimmer1	Shimmer1
Timestamp	Accelerometer X	Accelerometer Y	Accelerometer Z	Gyroscope X	Gyroscope Y	Gyroscope Z
CAL	CAL	CAL	CAL	CAL	CAL	CAL
mSecs	m/(sec^2)	m/(sec^2)	m/(sec^2)	deg/sec	deg/sec	deg/sec
3535241,272	2,416	9,713	-2,347	272,894	16,850	2,198
3535246,155	2,069	9,317	-2,257	286,447	9,524	12,088
3535251,038	2,059	9,693	-2,327	272,894	-17,949	11,355
3535255,920	1,752	9,277	-2,436	268,498	-18,315	9,890
3535260,803	1,119	9,020	-1,941	261,538	-17,949	29,304
3535265,686	1,366	8,663	-2,436	236,264	-9,890	30,769
3535270,569	1,990	8,297	-2,832	249,817	4,396	36,264
3535275,452	2,703	9,347	-2,535	286,447	42,491	10,623
3535280,334	3,347	9,980	-2,198	298,901	50,183	11,355
3535285,217	3,366	9,901	-2,366	277,289	30,769	23,810
3535290,100	2,723	9,079	-2,842	237,363	17,949	43,590
3535294,983	2,386	7,782	-3,535	202,198	-31,868	58,242
3535299,866	2,436	6,851	-4,297	176,557	-12,088	67,766
3535304,749	1,465	6,653	-4,277	177,656	-32,601	90,476
3535309,631	0,891	7,089	-4,624	208,059	-59,341	89,744
3535314,514	0,030	8,386	-4,554	253,480	-71,795	89,744
3535319,397	-0,198	9,376	-4,337	278,388	-79,121	89,011
3535324,280	-0,030	9,822	-4,386	291,575	-66,300	86,081
3535329,163	0,455	10,000	-4,455	295,604	-41,758	92,308
3535334,045	1,000	9,941	-4,267	289,377	-37,363	81,685
3535338,928	1,168	9,634	-4,347	282,051	-33,700	84,249
3535343,811	1,000	9,703	-4,059	278,388	-37,363	78,755
3535348,694	0,851	9,198	-4,327	257,509	-41,026	83,516
3535353,577	1,069	8,752	-4,505	241,026	-38,462	93,040
3535358,459	1,119	8,168	-4,366	222,711	-43,956	101,832
3535363,342	0,713	7,842	-5,069	208,425	-45,055	116,117
3535368,225	0,743	7,673	-5,000	218,681	-45,055	106,593
3535373,108	0,554	8,287	-4,861	223,443	-52,747	95,971
3535377,991	0,485	8,149	-4,545	232,234	-45,055	94,139
3535382,874	1,040	8,713	-4,475	258,608	-28,205	80,586
3535387,756	1,515	9,376	-3,881	279,121	-7,692	55,311
3535392,639	2,000	9,644	-3,634	272,161	9,158	60,440
3535397,522	2,158	9,475	-3,782	258,974	7,692	60,073
3535402,405	2,129	8,931	-3,802	249,451	0,366	68,498
3535407,288	1,812	8,574	-4,069	252,015	-16,117	77,289
3535412,170	1,475	8,614	-4,089	252,747	-30,403	70,696
3535417,053	1,188	8,723	-3,802	238,828	-34,066	71,062
3535421,936	1,188	8,485	-3,980	241,392	-17,949	76,190
3535426,819	1,673	8,228	-3,861	224,542	-9,158	67,399
3535431,702	2,040	8,020	-3,881	226,374	12,454	61,172
3535436,584	2,535	8,505	-3,663	253,480	23,443	50,183
3535441,467	2,881	9,069	-3,267	265,201	39,560	42,125
3535446,350	3,040	9,139	-3,129	257,509	29,670	36,996
3535451,233	2,545	9,079	-3,129	253,114	12,454	57,143
3535456,116	2,069	8,673	-3,901	229,670	-11,722	79,853
3535460,999	1,356	8,099	-4,426	216,850	-27,839	91,575
3535465,881	-12,624	17,297	4,950	284,982	-94,505	52,381
3535470,764	0,178	8,416	-5,604	219,048	-51,282	98,901
3535475,647	0,723	8,317	-3,762	268,132	-11,722	91,941
3535480,530	0,950	7,198	-4,495	157,875	-50,916	100,000
3535485,413	1,376	7,812	-4,743	285,714	-66,667	15,385
3535490,295	1,436	6,366	-5,287	142,125	1,832	134,799
3535495,178	1,733	7,475	-4,475	224,176	-24,542	27,473
3535500,061	1,287	8,594	-3,317	152,381	-44,322	-31,136
3535504,944	2,653	11,317	-5,040	200,733	-20,879	-121,612
3535509,827	3,347	5,822	-5,792	146,154	10,989	100,000
3535514,709	1,228	6,485	-4,010	273,260	-75,458	1,465
3535519,592	1,723	9,832	-6,030	318,681	-35,897	106,960
3535524,475	-0,792	6,743	-3,673	384,982	-49,817	367,766
3535529,358	0,792	7,475	-1,248	244,322	-21,245	77,289
3535534,241	2,911	6,020	2,436	146,520	32,967	-154,579
3535539,124	2,832	5,812	2,267	142,491	25,275	-156,410
3535544,006	2,485	5,653	2,515	138,095	8,791	-168,132
3535548,889	2,040	5,584	2,703	129,304	6,960	-157,143
3535553,772	20,277	20,277	-20,277	675,092	675,092	675,092
3535558,655	20,277	20,277	-20,277	675,092	675,092	675,092
3535563,538	20,277	20,277	-20,277	675,092	675,092	675,092
3535568,420	20,277	20,277	-20,277	675,092	675,092	675,092
3535573,303	20,277	20,277	-20,277	675,092	675,092	675,092
3535578,186	20,277	20,277	-20,277	675,092	675,092	675,092
3535583,069	20,277	20,277	-20,277	675,092	675,092	675,092
3535587,952	20,277	20,277	-20,277	675,092	675,092	675,092
3535592,834	20,277	20,277	-20,277	675,092	675,092	675,092
3535597,717	-6,267	-0,109	1,446	14,652	-34,432	-21,978
3535602,600	-6,238	-0,099	1,554	14,652	-34,432	-21,978
3535607,483	-6,010	-0,059	1,663	14,652	-34,432	-21,978
3535612,366	-6,139	0,030	1,495	14,652	-34,432	-21,978
3535617,249	-6,178	-0,089	1,574	14,652	-34,432	-21,978
3535622,131	-6,277	-0,149	1,396	14,652	-34,432	-21,978
3535627,014	-6,188	-0,069	1,327	14,652	-34,432	-21,978
3535631,897	-6,267	-0,050	1,644	14,652	-34,432	-21,978
3535636,780	-6,188	-0,109	1,525	14,652	-34,432	-21,978
3535641,663	-6,089	-0,168	1,327	14,652	-34,432	-21,978
3535646,545	-6,198	0,020	1,515	14,652	-34,432	-21,978
3535651,428	-6,158	-0,099	1,465	14,652	-34,432	-21,978
3535656,311	-6,248	0,010	1,505	14,652	-34,432	-21,978
3535661,194	-6,218	0,089	1,396	14,652	-34,432	-21,978
3535666,077	-6,208	-0,119	1,485	14,652	-34,432	-21,978
3535670,959	-6,287	-0,267	1,307	14,652	-34,432	-21,978
3535675,842	-6,267	-0,267	1,594	14,652	-34,432	-21,978
3535680,725	-6,327	0,099	1,644	14,652	-34,432	-21,978
3535685,608	-6,228	-0,158	1,455	14,652	-34,432	-21,978
3535690,491	-6,178	-0,099	1,396	14,652	-34,432	-21,978
3535695,374	-6,356	-0,188	1,564	14,652	-34,432	-21,978
3535700,256	-6,287	0,050	1,495	14,652	-34,432	-21,978
3535705,139	-6,317	-0,149	1,475	14,652	-34,432	-21,978
3535710,022	-6,188	0,069	1,436	14,652	-34,432	-21,978
3535714,905	-6,356	-0,040	1,535	14,652	-34,432	-21,978
3535719,788	-6,238	-0,010	1,495	14,652	-34,432	-21,978
3535724,670	-6,119	0,099	1,475	14,652	-34,432	-21,978
3535729,553	-6,238	-0,040	1,574	14,652	-34,432	-21,978
3535734,436	-6,149	-0,149	1,465	14,652	-34,432	-21,978
3535739,319	-6,366	-0,030	1,366	14,652	-34,432	-21,978
3535744,202	-6,030	-0,129	1,455	14,652	-34,432	-21,978
3535749,084	-6,307	-0,099	1,426	14,652	-34,432	-21,978
3535753,967	-6,030	-0,198	1,485	14,652	-34,432	-21,978
3535758,850	-6,208	-0,158	1,485	14,652	-34,432	-21,978
3535763,733	-6,168	-0,069	1,396	14,652	-34,432	-21,978
3535768,616	-6,248	0,010	1,406	14,652	-34,432	-21,978
3535773,499	-6,218	-0,059	1,535	14,652	-34,432	-21,978
3535778,381	-6,287	-0,020	1,554	14,652	-34,432	-21,978
3535783,264	-6,198	0,079	1,465	14,652	-34,432	-21,978
3535788,147	-6,257	0,040	1,584	14,652	-34,432	-21,978
3535793,030	-6,238	-0,228	1,426	14,652	-34,432	-21,978
3535797,913	-6,297	-0,059	1,554	14,652	-34,432	-21,978
3535802,795	-6,099	-0,030	1,436	14,652	-34,432	-21,978
3535807,678	-6,198	-0,198	1,376	14,652	-34,432	-21,978
3535812,561	-6,327	-0,109	1,347	14,652	-34,432	-21,978
3535817,444	-6,277	-0,109	1,475	14,652	-34,432	-21,978
3535822,327	-6,228	-0,119	1,446	14,652	-34,432	-21,978
3535827,209	-6,238	-0,307	1,446	14,652	-34,432	-21,978
3535832,092	-6,257	-0,188	1,475	14,652	-34,432	-21,978
3535836,975	-6,287	-0,129	1,545	14,652	-34,432	-21,978
3535841,858	-6,248	-0,030	1,594	14,652	-34,432	-21,978
3535846,741	-6,376	0,119	1,446	14,652	-34,432	-21,978
3535851,624	-6,574	0,149	1,653	14,652	-34,432	-21,978
3535856,506	-6,297	-0,168	1,634	14,652	-34,432	-21,978
3535861,389	-6,208	-0,228	1,584	14,652	-34,432	-21,978
3535866,272	-6,149	-0,257	1,317	14,652	-34,432	-21,978
3535871,155	-6,178	-0,040	1,356	14,652	-34,432	-21,978
3535876,038	-6,287	-0,040	1,297	14,652	-34,432	-21,978
3535880,920	-5,891	-0,149	0,851	14,652	-34,432	-21,978
3535885,803	-6,188	-0,010	1,545	14,652	-34,432	-21,978
3535890,686	-6,416	0,178	1,475	14,652	-34,432	-21,978
3535895,569	-6,406	0,050	1,287	14,652	-34,432	-21,978
3535900,452	-6,287	0,089	1,485	14,652	-34,432	-21,978
3535905,334	-6,307	-0,050	1,436	14,652	-34,432	-21,978
3535910,217	-6,455	-0,277	1,535	14,652	-34,432	-21,978
3535915,100	-6,218	0,020	1,554	14,652	-34,432	-21,978
3535919,983	-6,228	-0,248	1,465	14,652	-34,432	-21,978
3535924,866	-6,238	-0,089	1,505	14,652	-34,432	-21,978
3535929,749	-6,248	0,129	1,584	14,652	-34,432	-21,978
3535934,631	-6,356	-0,030	1,515	14,652	-34,432	-21,978
3535939,514	-6,337	-0,010	1,446	14,652	-34,432	-21,978
3535944,397	-6,297	-0,198	1,386	14,652	-34,432	-21,978
3535949,280	-6,337	0,079	1,554	14,652	-34,432	-21,978
3535954,163	-6,178	0,050	1,446	14,652	-34,432	-21,978
3535959,045	-6,119	-0,020	1,465	14,652	-34,432	-21,978
3535963,928	-6,366	-0,168	1,743	14,652	-34,432	-21,978
3535968,811	-6,208	-0,040	1,663	14,652	-34,432	-21,978
3535973,694	-6,337	0,069	1,554	14,652	-34,432	-21,978
3535978,577	-6,277	0,010	1,554	14,652	-34,432	-21,978
3535983,459	-6,347	0,040	1,416	14,652	-34,432	-21,978
3535988,342	-6,149	0,000	1,386	14,652	-34,432	-21,978
3535993,225	-6,198	-0,139	1,436	14,652	-34,432	-21,978
3535998,108	-6,020	-0,129	1,594	14,652	-34,432	-21,978
3536002,991	-6,168	-0,059	1,376	14,652	-34,432	-21,978
3536007,874	-6,089	0,040	1,416	14,652	-34,432	-21,978
3536012,756	-6,168	-0,158	1,535	14,652	-34,432	-21,978
3536017,639	-6,376	0,030	1,624	14,652	-34,432	-21,978
3536022,522	-6,287	-0,069	1,584	14,652	-34,432	-21,978
3536027,405	-6,317	-0,119	1,436	14,652	-34,432	-21,978
3536032,288	-6,317	0,059	1,772	14,652	-34,432	-21,978
3536037,170	-6,149	0,000	1,525	14,652	-34,432	-21,978
3536042,053	-6,327	0,079	1,495	14,652	-34,432	-21,978
3536046,936	-6,248	-0,040	1,485	14,652	-34,432	-21,978
3536051,819	-6,337	-0,050	1,634	14,652	-34,432	-21,978
3536056,702	-6,238	-0,158	1,465	14,652	-34,432	-21,978
3536061,584	-6,248	0,020	1,554	14,652	-34,432	-21,978
3536066,467	-6,297	-0,139	1,475	14,652	-34,432	-21,978
3536071,350	-6,277	-0,020	1,475	14,652	-34,432	-21,978
3536076,233	-6,238	-0,059	1,485	14,652	-34,432	-21,978
3536081,116	-6,059	-0,020	1,465	14,652	-34,432	-21,978
3536085,999	-6,079	-0,020	1,376	14,652	-34,432	-21,978
3536090,881	-6,238	-0,010	1,515	14,652	-34,432	-21,978
3536095,764	-6,208	0,030	1,495	14,652	-34,432	-21,978
3536100,647	-6,297	0,099	1,347	14,652	-34,432	-21,978
3536105,530	-6,168	-0,069	1,396	14,652	-34,432	-21,978
3536110,413	-6,188	-0,129	1,257	14,652	-34,432	-21,978
3536115,295	-6,168	0,079	1,465	14,652	-34,432	-21,978
3536120,178	-6,178	-0,050	1,426	14,652	-34,432	-21,978
3536125,061	-6,257	0,059	1,465	14,652	-34,432	-21,978
3536129,944	-6,149	-0,079	1,554	14,652	-34,432	-21,978
3536134,827	-6,307	-0,079	1,535	14,652	-34,432	-21,978
3536139,709	-6,178	-0,040	1,495	14,652	-34,432	-21,978
3536144,592	-6,198	-0,079	1,574	14,652	-34,432	-21,978
3536149,475	-6,356	0,050	1,505	14,652	-34,432	-21,978
3536154,358	-6,198	0,020	1,515	14,652	-34,432	-21,978
3536159,241	-6,149	-0,059	1,614	14,652	-34,432	-21,978
3536164,124	-6,149	0,020	1,465	14,652	-34,432	-21,978
3536169,006	-6,208	0,000	1,574	14,652	-34,432	-21,978
3536173,889	-6,228	-0,040	1,396	14,652	-34,432	-21,978
3536178,772	-6,158	-0,079	1,535	14,652	-34,432	-21,978
3536183,655	-6,158	-0,089	1,515	14,652	-34,432	-21,978
3536188,538	-6,178	-0,119	1,545	14,652	-34,432	-21,978
3536193,420	-6,208	-0,030	1,554	14,652	-34,432	-21,978
3536198,303	-6,208	-0,069	1,495	14,652	-34,432	-21,978
3536203,186	-6,327	0,010	1,475	14,652	-34,432	-21,978
3536208,069	-6,188	-0,079	1,584	14,652	-34,432	-21,978
3536212,952	-6,277	0,069	1,406	14,652	-34,432	-21,978
3536217,834	-6,149	-0,139	1,683	14,652	-34,432	-21,978
3536222,717	-6,188	-0,149	1,485	14,652	-34,432	-21,978
3536227,600	-6,198	0,000	1,545	14,652	-34,432	-21,978
3536232,483	-6,257	-0,059	1,525	14,652	-34,432	-21,978
3536237,366	-6,386	0,079	1,604	14,652	-34,432	-21,978
3536242,249	-6,386	-0,020	1,634	14,652	-34,432	-21,978
3536247,131	-6,059	0,040	1,683	14,652	-34,432	-21,978
3536252,014	-6,218	0,020	1,624	14,652	-34,432	-21,978
3536256,897	-6,218	-0,040	1,604	14,652	-34,432	-21,978
3536261,780	-6,257	-0,040	1,693	14,652	-34,432	-21,978
3536266,663	-6,129	0,069	1,584	14,652	-34,432	-21,978
3536271,545	-6,050	0,059	1,475	14,652	-34,432	-21,978
3536276,428	-6,188	-0,089	1,426	14,652	-34,432	-21,978
3536281,311	-6,198	-0,040	1,535	14,652	-34,432	-21,978
3536286,194	-6,267	-0,010	1,465	14,652	-34,432	-21,978
3536291,077	-6,158	-0,050	1,574	14,652	-34,432	-21,978
3536295,959	-6,267	-0,109	1,653	14,652	-34,432	-21,978
3536300,842	-6,287	-0,089	1,653	14,652	-34,432	-21,978
3536305,725	-6,228	-0,089	1,446	14,652	-34,432	-21,978
3536310,608	-6,218	-0,020	1,564	14,652	-34,432	-21,978
3536315,491	-6,238	0,099	1,535	14,652	-34,432	-21,978
3536320,374	-5,990	0,079	1,584	14,652	-34,432	-21,978
3536325,256	-6,079	-0,030	1,376	14,652	-34,432	-21,978
3536330,139	-6,218	-0,188	1,515	14,652	-34,432	-21,978
3536335,022	-6,356	-0,129	0,990	14,652	-34,432	-21,978
3536339,905	-6,089	-0,010	1,455	14,652	-34,432	-21,978
3536344,788	-6,277	-0,069	1,762	14,652	-34,432	-21,978
3536349,670	-6,416	0,307	1,733	14,652	-34,432	-21,978
3536354,553	-6,317	-0,050	1,653	14,652	-34,432	-21,978
3536359,436	-6,228	-0,050	1,554	14,652	-34,432	-21,978
3536364,319	-6,139	0,267	1,455	14,652	-34,432	-21,978
3536369,202	-6,158	0,000	1,653	14,652	-34,432	-21,978
3536374,084	-6,158	-0,158	1,455	14,652	-34,432	-21,978
3536378,967	-6,069	-0,119	1,426	14,652	-34,432	-21,978
3536383,850	-6,059	-0,030	1,624	14,652	-34,432	-21,978
3536388,733	-6,178	0,129	1,584	14,652	-34,432	-21,978
3536393,616	-6,109	0,040	1,525	14,652	-34,432	-21,978
3536398,499	-6,238	-0,059	1,515	14,652	-34,432	-21,978
3536403,381	-6,327	-0,030	1,475	14,652	-34,432	-21,978
3536408,264	-6,050	-0,089	1,644	14,652	-34,432	-21,978
3536413,147	-6,129	-0,069	1,624	14,652	-34,432	-21,978
3536418,030	-6,158	0,099	1,554	14,652	-34,432	-21,978
3536422,913	-6,089	-0,010	1,614	14,652	-34,432	-21,978
3536427,795	-6,327	-0,030	1,495	14,652	-34,432	-21,978
3536432,678	-6,139	0,099	1,525	14,652	-34,432	-21,978
3536437,561	-6,257	0,040	1,584	14,652	-34,432	-21,978
3536442,444	-6,050	-0,129	1,525	14,652	-34,432	-21,978
3536447,327	-6,178	-0,030	1,525	14,652	-34,432	-21,978
3536452,209	-6,178	-0,089	1,653	14,652	-34,432	-21,978
3536457,092	-6,129	-0,079	1,733	14,652	-34,432	-21,978
3536461,975	-6,208	-0,050	1,495	14,652	-34,432	-21,978
3536466,858	-6,267	0,020	1,485	14,652	-34,432	-21,978
3536471,741	-6,129	-0,010	1,673	14,652	-34,432	-21,978
3536476,624	-6,317	-0,010	1,475	14,652	-34,432	-21,978
3536481,506	-6,188	-0,099	1,505	14,652	-34,432	-21,978
3536486,389	-6,178	-0,050	1,574	14,652	-34,432	-21,978
3536491,272	-6,168	-0,050	1,713	14,652	-34,432	-21,978
3536496,155	-6,218	-0,059	1,436	14,652	-34,432	-21,978
3536501,038	-6,188	-0,178	1,505	14,652	-34,432	-21,978
3536505,920	-6,238	-0,069	1,634	14,652	-34,432	-21,978
3536510,803	-6,248	-0,129	1,505	14,652	-34,432	-21,978
3536515,686	-6,139	-0,178	1,505	14,652	-34,432	-21,978
3536520,569	-6,198	-0,010	1,554	14,652	-34,432	-21,978
3536525,452	-6,208	-0,158	1,614	14,652	-34,432	-21,978
3536530,334	-6,158	0,089	1,485	14,652	-34,432	-21,978
3536535,217	-6,129	0,040	1,832	14,652	-34,432	-21,978
3536540,100	-6,109	-0,010	1,515	14,652	-34,432	-21,978
3536544,983	-6,218	-0,059	1,584	14,652	-34,432	-21,978
3536549,866	-6,228	0,089	1,653	14,652	-34,432	-21,978
3536554,749	-6,277	-0,119	1,604	14,652	-34,432	-21,978
3536559,631	-6,129	-0,059	1,594	14,652	-34,432	-21,978
3536564,514	-6,069	0,089	1,644	14,652	-34,432	-21,978
3536569,397	-6,149	-0,119	1,505	14,652	-34,432	-21,978
3536574,280	-6,059	-0,010	1,723	14,652	-34,432	-21,978
3536579,163	-6,297	-0,208	1,545	14,652	-34,432	-21,978
3536584,045	-6,188	-0,089	1,515	14,652	-34,432	-21,978
3536588,928	-6,188	-0,109	1,475	14,652	-34,432	-21,978
3536593,811	-6,168	-0,020	1,515	14,652	-34,432	-21,978
3536598,694	-6,188	-0,129	1,812	14,652	-34,432	-21,978
3536603,577	-6,218	0,020	1,624	14,652	-34,432	-21,978
3536608,459	-6,129	-0,059	1,574	14,652	-34,432	-21,978
3536613,342	-6,099	-0,069	1,564	14,652	-34,432	-21,978
3536618,225	-6,228	-0,149	1,624	14,652	-34,432	-21,978
3536623,108	-6,238	-0,030	1,614	14,652	-34,432	-21,978
3536627,991	-6,168	0,129	1,574	14,652	-34,432	-21,978
3536632,874	-6,406	-0,059	1,545	14,652	-34,432	-21,978
3536637,756	-6,277	-0,129	1,535	14,652	-34,432	-21,978
3536642,639	-6,119	-0,059	1,634	14,652	-34,432	-21,978
3536647,522	-6,158	-0,119	1,614	14,652	-34,432	-21,978
3536652,405	-6,010	0,020	1,653	14,652	-34,432	-21,978
3536657,288	-6,099	-0,030	1,564	14,652	-34,432	-21,978
3536662,170	-6,158	-0,020	1,535	14,652	-34,432	-21,978
3536667,053	-6,188	0,010	1,574	14,652	-34,432	-21,978
3536671,936	-6,267	-0,050	1,762	14,652	-34,432	-21,978
3536676,819	-6,347	0,099	1,822	14,652	-34,432	-21,978
3536681,702	-6,198	-0,040	1,653	14,652	-34,432	-21,978
3536686,584	-6,040	0,040	1,663	14,652	-34,432	-21,978
3536691,467	-6,129	0,040	1,535	14,652	-34,432	-21,978
3536696,350	-6,050	-0,010	1,574	14,652	-34,432	-21,978
3536701,233	-6,178	-0,079	1,564	14,652	-34,432	-21,978
3536706,116	-5,881	-0,277	1,624	14,652	-34,432	-21,978
3536710,999	-6,238	0,040	1,683	14,652	-34,432	-21,978
3536715,881	-6,178	0,020	1,614	14,652	-34,432	-21,978
3536720,764	-6,059	0,168	1,673	14,652	-34,432	-21,978
3536725,647	-6,208	-0,040	1,604	14,652	-34,432	-21,978
3536730,530	-6,208	-0,079	1,653	14,652	-34,432	-21,978
3536735,413	-6,178	0,030	1,653	14,652	-34,432	-21,978
3536740,295	-6,228	-0,119	1,614	14,652	-34,432	-21,978
3536745,178	-6,257	-0,079	1,574	14,652	-34,432	-21,978
3536750,061	-6,198	-0,099	1,693	14,652	-34,432	-21,978
3536754,944	-6,020	0,050	1,535	14,652	-34,432	-21,978
3536759,827	-6,129	-0,198	1,644	14,652	-34,432	-21,978
3536764,709	-6,109	-0,010	1,673	14,652	-34,432	-21,978
3536769,592	-6,158	0,020	1,673	14,652	-34,432	-21,978
3536774,475	-6,208	-0,059	1,663	14,652	-34,432	-21,978
3536779,358	-6,129	0,030	1,475	14,652	-34,432	-21,978
3536784,241	-6,168	-0,119	1,723	14,652	-34,432	-21,978
3536789,124	-6,158	-0,030	1,564	14,652	-34,432	-21,978
3536794,006	-6,228	-0,040	1,703	14,652	-34,432	-21,978
3536798,889	-6,337	0,109	1,624	14,652	-34,432	-21,978
3536803,772	-6,218	-0,079	1,604	14,652	-34,432	-21,978
3536808,655	-6,257	-0,040	1,525	14,652	-34,432	-21,978
3536813,538	-6,317	-0,010	1,515	14,652	-34,432	-21,978
3536818,420	-6,050	0,000	1,525	14,652	-34,432	-21,978
3536823,303	-6,198	-0,069	1,545	14,652	-34,432	-21,978
3536828,186	-6,238	-0,079	1,604	14,652	-34,432	-21,978
3536833,069	-6,297	0,069	1,634	14,652	-34,432	-21,978
3536837,952	-6,178	-0,099	1,396	14,652	-34,432	-21,978
3536842,834	-5,950	-0,168	1,545	14,652	-34,432	-21,978
3536847,717	-6,020	-0,218	1,455	14,652	-34,432	-21,978
3536852,600	-6,168	-0,030	1,584	14,652	-34,432	-21,978
3536857,483	-6,337	-0,010	1,663	14,652	-34,432	-21,978
3536862,366	-6,178	0,020	1,653	14,652	-34,432	-21,978
3536867,249	-6,198	0,050	1,832	14,652	-34,432	-21,978
3536872,131	-6,327	-0,030	1,574	14,652	-34,432	-21,978
3536877,014	-6,178	0,129	1,644	14,652	-34,432	-21,978
3536881,897	-6,307	0,099	1,713	14,652	-34,432	-21,978
3536886,780	-6,040	0,050	1,851	14,652	-34,432	-21,978
3536891,663	-6,327	0,000	1,673	14,652	-34,432	-21,978
3536896,545	-6,238	0,109	1,871	14,652	-34,432	-21,978
3536901,428	-6,248	0,040	1,792	14,652	-34,432	-21,978
3536906,311	-5,485	-0,703	1,832	14,652	-34,432	-21,978
3536911,194	-6,149	0,307	1,762	14,652	-34,432	-21,978
3536916,077	-6,168	-0,129	1,485	14,652	-34,432	-21,978
3536920,959	-6,495	0,079	1,851	14,652	-34,432	-21,978
3536925,842	-6,446	0,188	1,624	14,652	-34,432	-21,978
3536930,725	-6,525	-0,040	1,653	14,652	-34,432	-21,978
3536935,608	-6,218	-0,238	1,604	14,652	-34,432	-21,978
3536940,491	-5,851	-0,248	1,584	14,652	-34,432	-21,978
3536945,374	-5,941	-0,158	1,624	14,652	-34,432	-21,978
3536950,256	-5,980	-0,050	1,614	14,652	-34,432	-21,978
3536955,139	-5,881	0,149	1,564	14,652	-34,432	-21,978
3536960,022	-6,119	-0,079	1,713	14,652	-34,432	-21,978
3536964,905	-6,208	-0,307	1,693	14,652	-34,432	-21,978
3536969,788	-7,287	-1,149	2,337	14,652	-34,432	-21,978
3536974,670	-9,881	0,634	3,010	14,652	-34,432	-21,978
3536979,553	-4,891	0,931	0,178	14,652	-34,432	-21,978
3536984,436	-4,495	1,327	0,475	14,652	-34,432	-21,978
3536989,319	-4,802	0,218	0,485	14,652	-34,432	-21,978
3536994,202	-5,604	-0,257	1,198	14,652	-34,432	-21,978
3536999,084	-6,059	-0,604	1,653	14,652	-34,432	-21,978
3537003,967	-6,109	-0,386	1,812	14,652	-34,432	-21,978
3537008,850	-6,337	-0,109	2,149	14,652	-34,432	-21,978
3537013,733	-6,446	-0,109	2,238	14,652	-34,432	-21,978
3537018,616	-6,683	-0,228	2,307	14,652	-34,432	-21,978
3537023,499	-6,624	-0,030	2,000	14,652	-34,432	-21,978
3537028,381	-6,713	0,069	1,990	14,652	-34,432	-21,978
3537033,264	-6,624	0,129	1,723	14,652	-34,432	-21,978
3537038,147	-6,485	-0,089	1,960	14,652	-34,432	-21,978
3537043,030	-6,050	-0,178	1,802	14,652	-34,432	-21,978
3537047,913	-5,990	0,010	1,980	14,652	-34,432	-21,978
3537052,795	-6,178	-0,307	1,911	14,652	-34,432	-21,978
3537057,678	-6,198	-0,297	1,871	14,652	-34,432	-21,978
3537062,561	-5,277	0,168	2,010	14,652	-34,432	-21,978
3537067,444	-5,743	-1,099	1,723	14,652	-34,432	-21,978
3537072,327	-5,842	-0,287	1,871	14,652	-34,432	-21,978
3537077,209	-6,257	-0,644	2,287	14,652	-34,432	-21,978
3537082,092	-6,000	-0,713	2,545	14,652	-34,432	-21,978
3537086,975	-5,901	-0,614	2,792	14,652	-34,432	-21,978
3537091,858	-5,931	-1,040	2,861	14,652	-34,432	-21,978
3537096,741	-5,812	-0,683	2,515	14,652	-34,432	-21,978
3537101,624	-5,673	-0,772	2,871	14,652	-34,432	-21,978
3537106,506	-5,505	-0,891	2,842	14,652	-34,432	-21,978
3537111,389	-5,594	-0,594	3,069	14,652	-34,432	-21,978
3537116,272	-5,960	-0,455	3,089	14,652	-34,432	-21,978
3537121,155	-5,347	-0,713	2,713	14,652	-34,432	-21,978
3537126,038	-5,386	-0,554	2,901	14,652	-34,432	-21,978
3537130,920	-6,109	-0,158	3,871	14,652	-34,432	-21,978
3537135,803	-6,653	-0,020	4,327	14,652	-34,432	-21,978
3537140,686	-6,822	-0,149	4,307	14,652	-34,432	-21,978
3537145,569	-6,851	-0,327	4,168	14,652	-34,432	-21,978
3537150,452	-6,822	-0,020	4,069	14,652	-34,432	-21,978
3537155,334	-6,901	0,188	3,644	14,652	-34,432	-21,978
3537160,217	-6,752	0,416	3,069	14,652	-34,432	-21,978
3537165,100	-6,584	0,446	2,752	14,652	-34,432	-21,978
3537169,983	-6,376	0,446	2,010	14,652	-34,432	-21,978
3537174,866	-6,416	0,475	2,257	14,652	-34,432	-21,978
3537179,749	-6,129	0,653	2,228	14,652	-34,432	-21,978
3537184,631	-6,020	1,000	2,772	14,652	-34,432	-21,978
3537189,514	-5,545	0,455	2,327	14,652	-34,432	-21,978
3537194,397	-10,901	6,931	2,356	14,652	-34,432	-21,978
3537199,280	-8,238	1,663	2,792	14,652	-34,432	-21,978
3537204,163	-6,317	1,198	1,931	14,652	-34,432	-21,978
3537209,045	-4,624	-0,079	1,426	14,652	-34,432	-21,978
3537213,928	-3,554	-0,208	1,257	14,652	-34,432	-21,978
3537218,811	-3,000	0,168	2,089	14,652	-34,432	-21,978
3537223,694	-0,881	-0,564	3,980	14,652	-34,432	-21,978
3537228,577	-1,188	1,218	2,554	14,652	-34,432	-21,978
3537233,459	-2,079	1,347	3,970	14,652	-34,432	-21,978
3537238,342	-2,703	1,248	4,931	14,652	-34,432	-21,978
3537243,225	-3,772	1,634	5,772	14,652	-34,432	-21,978
3537248,108	-4,337	1,901	6,040	14,652	-34,432	-21,978
3537252,991	-3,980	1,921	4,703	14,652	-34,432	-21,978
3537257,874	-3,644	1,436	3,653	14,652	-34,432	-21,978
3537262,756	-3,040	1,020	3,099	14,652	-34,432	-21,978
3537267,639	-2,545	0,772	2,406	14,652	-34,432	-21,978
3537272,522	-2,317	0,545	2,446	14,652	-34,432	-21,978
3537277,405	-2,307	0,851	2,594	14,652	-34,432	-21,978
3537282,288	-2,436	1,307	2,663	14,652	-34,432	-21,978
3537287,170	-2,267	0,832	2,822	14,652	-34,432	-21,978
3537292,053	-2,287	0,822	2,782	14,652	-34,432	-21,978
3537296,936	-2,446	1,426	2,851	14,652	-34,432	-21,978
3537301,819	-3,426	2,139	3,327	14,652	-34,432	-21,978
3537306,702	-3,881	2,158	3,812	14,652	-34,432	-21,978
3537311,584	-3,495	1,485	4,139	14,652	-34,432	-21,978
3537316,467	-3,168	1,327	4,119	14,652	-34,432	-21,978
3537321,350	-2,693	1,129	3,851	14,652	-34,432	-21,978
3537326,233	-2,713	1,188	3,812	14,652	-34,432	-21,978
3537331,116	-3,000	1,218	3,921	14,652	-34,432	-21,978
3537335,999	-3,356	1,188	3,990	14,652	-34,432	-21,978
3537340,881	-3,436	1,069	3,832	14,652	-34,432	-21,978
3537345,764	-2,832	0,743	3,703	14,652	-34,432	-21,978
3537350,647	-5,228	2,713	2,010	14,652	-34,432	-21,978
3537355,530	-6,673	0,277	4,188	14,652	-34,432	-21,978
3537360,413	-6,515	-0,356	3,792	14,652	-34,432	-21,978
3537365,295	-5,386	0,079	3,198	14,652	-34,432	-21,978
3537370,178	-4,079	0,069	3,426	14,652	-34,432	-21,978
3537375,061	-3,515	-0,109	3,871	14,652	-34,432	-21,978
3537379,944	-3,317	0,050	4,050	14,652	-34,432	-21,978
3537384,827	-3,406	0,040	4,188	14,652	-34,432	-21,978
3537389,709	-3,238	0,050	4,208	14,652	-34,432	-21,978
3537394,592	-3,337	0,366	3,891	14,652	-34,432	-21,978
3537399,475	-3,426	0,495	3,743	14,652	-34,432	-21,978
3537404,358	-3,267	0,287	3,772	14,652	-34,432	-21,978
3537409,241	-3,307	0,347	3,743	14,652	-34,432	-21,978
3537414,124	-3,327	0,851	3,683	14,652	-34,432	-21,978
3537419,006	-3,396	-0,020	3,782	14,652	-34,432	-21,978
3537423,889	-9,871	3,188	1,089	14,652	-34,432	-21,978
3537428,772	-3,188	-0,089	3,277	14,652	-34,432	-21,978
3537433,655	-3,446	-0,188	3,683	14,652	-34,432	-21,978
3537438,538	-3,515	0,188	3,545	14,652	-34,432	-21,978
3537443,420	-3,455	0,257	3,683	14,652	-34,432	-21,978
3537448,303	-3,515	0,168	3,624	14,652	-34,432	-21,978
3537453,186	-3,436	0,208	3,545	14,652	-34,432	-21,978
3537458,069	-3,386	0,149	3,604	14,652	-34,432	-21,978
3537462,952	-3,356	0,020	3,495	14,652	-34,432	-21,978
3537467,834	-3,208	-0,020	3,436	14,652	-34,432	-21,978
3537472,717	-3,129	-0,178	3,455	14,652	-34,432	-21,978
3537477,600	-2,980	-0,099	3,574	14,652	-34,432	-21,978
3537482,483	-3,079	-0,178	3,584	14,652	-34,432	-21,978
3537487,366	-3,119	0,000	3,782	14,652	-34,432	-21,978
3537492,249	-3,178	-0,099	3,941	14,652	-34,432	-21,978
3537497,131	-3,376	0,188	3,693	14,652	-34,432	-21,978
3537502,014	-3,485	0,158	3,634	14,652	-34,432	-21,978
3537506,897	-3,564	0,297	3,455	14,652	-34,432	-21,978
3537511,780	-3,584	0,218	3,406	14,652	-34,432	-21,978
3537516,663	-3,416	0,158	3,376	14,652	-34,432	-21,978
3537521,545	-3,297	-0,030	3,465	14,652	-34,432	-21,978
3537526,428	-3,277	-0,020	3,515	14,652	-34,432	-21,978
3537531,311	-3,475	-0,010	3,762	14,652	-34,432	-21,978
3537536,194	-3,465	0,050	3,871	14,652	-34,432	-21,978
3537541,077	-3,317	0,069	3,812	14,652	-34,432	-21,978
3537545,959	-3,267	-0,069	3,792	14,652	-34,432	-21,978
3537550,842	-3,228	-0,188	3,436	14,652	-34,432	-21,978
3537555,725	-3,257	-0,168	3,416	14,652	-34,432	-21,978
3537560,608	-3,248	-0,158	3,356	14,652	-34,432	-21,978
3537565,491	-3,347	-0,079	3,723	14,652	-34,432	-21,978
3537570,374	-3,178	0,000	3,762	14,652	-34,432	-21,978
3537575,256	-3,000	0,079	3,693	14,652	-34,432	-21,978
3537580,139	-3,059	0,010	3,535	14,652	-34,432	-21,978
3537585,022	-3,178	0,059	3,297	14,652	-34,432	-21,978
3537589,905	-3,307	-0,149	3,297	14,652	-34,432	-21,978
3537594,788	-3,228	-0,010	3,663	14,652	-34,432	-21,978
3537599,670	-3,396	0,010	3,970	14,652	-34,432	-21,978
3537604,553	-3,356	0,129	4,079	14,652	-34,432	-21,978
3537609,436	-3,337	0,168	4,347	14,652	-34,432	-21,978
3537614,319	-3,248	0,089	4,564	14,652	-34,432	-21,978
3537619,202	-3,455	0,139	4,525	14,652	-34,432	-21,978
3537624,084	-3,317	0,634	4,168	14,652	-34,432	-21,978
3537628,967	-3,376	0,485	3,990	14,652	-34,432	-21,978
3537633,850	-3,218	0,436	4,178	14,652	-34,432	-21,978
3537638,733	-3,337	0,574	4,446	14,652	-34,432	-21,978
3537643,616	-3,347	0,554	4,564	14,652	-34,432	-21,978
3537648,499	-3,317	0,624	4,465	14,652	-34,432	-21,978
3537653,381	-3,495	0,752	4,277	14,652	-34,432	-21,978
3537658,264	-3,446	0,743	4,317	14,652	-34,432	-21,978
3537663,147	-3,663	0,614	5,158	14,652	-34,432	-21,978
3537668,030	-3,337	0,792	4,624	14,652	-34,432	-21,978
3537672,913	-3,059	0,871	4,505	14,652	-34,432	-21,978
3537677,795	-2,970	1,020	4,337	14,652	-34,432	-21,978
3537682,678	-3,139	1,050	4,584	14,652	-34,432	-21,978
3537687,561	-3,079	0,921	5,000	14,652	-34,432	-21,978
3537692,444	-2,931	1,168	5,218	14,652	-34,432	-21,978
3537697,327	-2,911	0,663	5,446	14,652	-34,432	-21,978
3537702,209	-2,772	0,574	5,317	14,652	-34,432	-21,978
3537707,092	-2,713	0,644	5,386	14,652	-34,432	-21,978
3537711,975	-2,723	0,495	5,040	14,652	-34,432	-21,978
3537716,858	-2,752	0,733	4,782	14,652	-34,432	-21,978
3537721,741	-2,683	0,584	4,842	14,652	-34,432	-21,978
3537726,624	-2,634	0,733	4,703	14,652	-34,432	-21,978
3537731,506	-2,693	0,792	4,851	14,652	-34,432	-21,978
3537736,389	-3,050	0,941	4,535	14,652	-34,432	-21,978
3537741,272	-3,158	1,030	4,307	14,652	-34,432	-21,978
3537746,155	-3,277	1,683	3,941	14,652	-34,432	-21,978
3537751,038	-2,881	1,505	3,921	14,652	-34,432	-21,978
3537755,920	-2,950	1,396	3,475	14,652	-34,432	-21,978
3537760,803	-2,624	1,446	3,782	14,652	-34,432	-21,978
3537765,686	-2,792	1,327	3,287	14,652	-34,432	-21,978
3537770,569	-2,713	1,644	3,693	14,652	-34,432	-21,978
3537775,452	-2,762	1,574	3,822	14,652	-34,432	-21,978
3537780,334	-2,228	1,554	4,069	14,652	-34,432	-21,978
3537785,217	-2,149	1,327	3,990	14,652	-34,432	-21,978
3537790,100	-1,881	1,574	3,545	14,652	-34,432	-21,978
3537794,983	-1,584	1,396	3,356	14,652	-34,432	-21,978
3537799,866	-1,842	0,950	3,792	14,652	-34,432	-21,978
3537804,749	-2,050	0,584	4,406	14,652	-34,432	-21,978
3537809,631	-1,980	0,970	4,564	14,652	-34,432	-21,978
3537814,514	-2,020	1,178	4,545	14,652	-34,432	-21,978
3537819,397	-2,050	1,178	4,327	14,652	-34,432	-21,978
3537824,280	-2,238	0,822	3,634	14,652	-34,432	-21,978
3537829,163	-2,238	1,327	3,644	14,652	-34,432	-21,978
3537834,045	-1,871	1,436	3,624	14,652	-34,432	-21,978
3537838,928	-1,802	1,465	3,614	14,652	-34,432	-21,978
3537843,811	-1,455	1,752	3,465	14,652	-34,432	-21,978
3537848,694	-1,980	1,743	3,762	14,652	-34,432	-21,978
3537853,577	-1,683	2,188	3,980	14,652	-34,432	-21,978
3537858,459	-1,634	2,099	3,842	14,652	-34,432	-21,978
3537863,342	-1,347	2,129	3,950	14,652	-34,432	-21,978
3537868,225	-1,178	1,416	4,050	14,652	-34,432	-21,978
3537873,108	-1,584	1,307	3,802	14,652	-34,432	-21,978
3537877,991	-1,436	1,317	4,020	14,652	-34,432	-21,978
3537882,874	-1,297	1,802	4,030	14,652	-34,432	-21,978
3537887,756	-1,248	1,782	4,069	14,652	-34,432	-21,978
3537892,639	-1,248	1,713	4,079	14,652	-34,432	-21,978
3537897,522	-1,228	1,515	3,743	14,652	-34,432	-21,978
3537902,405	-1,386	1,218	3,990	14,652	-34,432	-21,978
3537907,288	-1,149	1,455	4,257	14,652	-34,432	-21,978
3537912,170	-1,188	1,663	4,297	14,652	-34,432	-21,978
3537917,053	-1,525	2,000	3,891	14,652	-34,432	-21,978
3537921,936	-1,158	1,960	3,812	14,652	-34,432	-21,978
3537926,819	-0,980	2,149	3,842	14,652	-34,432	-21,978
3537931,702	-0,911	2,554	4,287	14,652	-34,432	-21,978
3537936,584	-0,743	3,168	4,703	14,652	-34,432	-21,978
3537941,467	-0,485	3,020	4,871	14,652	-34,432	-21,978
3537946,350	-0,238	2,277	5,149	14,652	-34,432	-21,978
3537951,233	-0,713	2,436	5,059	14,652	-34,432	-21,978
3537956,116	-0,822	1,950	4,515	14,652	-34,432	-21,978
3537960,999	-0,663	2,218	4,040	14,652	-34,432	-21,978
3537965,881	-0,624	2,515	3,861	14,652	-34,432	-21,978
3537970,764	-0,683	2,743	3,970	14,652	-34,432	-21,978
3537975,647	-0,762	2,723	4,040	14,652	-34,432	-21,978
3537980,530	-0,574	2,861	4,050	14,652	-34,432	-21,978
3537985,413	-0,465	2,683	4,297	14,652	-34,432	-21,978
3537990,295	-0,881	2,762	4,287	14,652	-34,432	-21,978
3537995,178	-0,931	3,050	4,594	14,652	-34,432	-21,978
3538000,061	-1,129	2,950	4,960	14,652	-34,432	-21,978
3538004,944	-1,446	2,485	5,386	14,652	-34,432	-21,978
3538009,827	-1,782	2,109	5,802	14,652	-34,432	-21,978
3538014,709	-2,010	2,287	5,921	14,652	-34,432	-21,978
3538019,592	-2,218	2,554	5,941	14,652	-34,432	-21,978
3538024,475	-1,960	3,218	5,257	14,652	-34,432	-21,978
3538029,358	-1,257	3,129	4,990	14,652	-34,432	-21,978
3538034,241	-1,436	2,347	4,931	14,652	-34,432	-21,978
3538039,124	-1,634	1,792	4,366	14,652	-34,432	-21,978
3538044,006	-1,307	1,644	3,990	14,652	-34,432	-21,978
3538048,889	-1,396	1,406	3,584	14,652	-34,432	-21,978
3538053,772	-1,584	0,980	3,901	14,652	-34,432	-21,978
3538058,655	-1,554	1,485	4,050	14,652	-34,432	-21,978
3538063,538	-1,634	1,762	3,901	14,652	-34,432	-21,978
3538068,420	-1,772	2,109	3,614	14,652	-34,432	-21,978
3538073,303	-1,960	2,218	3,634	14,652	-34,432	-21,978
3538078,186	-2,089	2,317	3,376	14,652	-34,432	-21,978
3538083,069	-2,069	2,317	3,356	14,652	-34,432	-21,978
3538087,952	-2,119	2,139	3,356	14,652	-34,432	-21,978
3538092,834	-1,960	2,168	3,604	14,652	-34,432	-21,978
3538097,717	-2,149	2,178	3,931	14,652	-34,432	-21,978
3538102,600	-2,129	2,436	4,337	14,652	-34,432	-21,978
3538107,483	-2,089	2,297	4,446	14,652	-34,432	-21,978
3538112,366	-2,119	2,267	4,505	14,652	-34,432	-21,978
3538117,249	-2,129	2,475	4,386	14,652	-34,432	-21,978
3538122,131	-2,139	2,307	4,297	14,652	-34,432	-21,978
3538127,014	-2,178	2,386	4,149	14,652	-34,432	-21,978
3538131,897	-2,347	2,505	4,050	14,652	-34,432	-21,978
3538136,780	-2,129	2,416	4,089	14,652	-34,432	-21,978
3538141,663	-2,020	2,386	4,099	14,652	-34,432	-21,978
3538146,545	-2,000	2,554	4,089	14,652	-34,432	-21,978
3538151,428	-1,921	2,495	4,178	14,652	-34,432	-21,978
3538156,311	-2,000	2,416	4,238	14,652	-34,432	-21,978
3538161,194	-1,960	2,455	4,218	14,652	-34,432	-21,978
3538166,077	-2,089	2,782	4,416	14,652	-34,432	-21,978
3538170,959	-1,901	2,822	4,545	14,652	-34,432	-21,978
3538175,842	-1,960	2,772	4,099	14,652	-34,432	-21,978
3538180,725	-1,812	2,683	3,931	14,652	-34,432	-21,978
3538185,608	-1,782	2,545	4,030	14,652	-34,432	-21,978
3538190,491	-1,812	2,505	3,970	14,652	-34,432	-21,978
3538195,374	-1,762	2,545	3,990	14,652	-34,432	-21,978
3538200,256	-1,822	2,416	3,950	14,652	-34,432	-21,978
3538205,139	-1,653	2,495	4,030	14,652	-34,432	-21,978
3538210,022	-1,733	2,594	3,970	14,652	-34,432	-21,978
3538214,905	-1,683	2,792	3,891	14,652	-34,432	-21,978
3538219,788	-1,752	2,693	4,099	14,652	-34,432	-21,978
3538224,670	-1,743	2,832	4,297	14,652	-34,432	-21,978
3538229,553	-1,713	3,059	4,455	14,652	-34,432	-21,978
3538234,436	-1,861	3,129	4,564	14,652	-34,432	-21,978
3538239,319	-1,653	3,307	4,584	14,652	-34,432	-21,978
3538244,202	-1,079	3,673	4,347	14,652	-34,432	-21,978
3538249,084	-1,792	3,218	4,416	14,652	-34,432	-21,978
3538253,967	-2,356	3,119	4,624	14,652	-34,432	-21,978
3538258,850	-2,535	3,208	4,663	14,652	-34,432	-21,978
3538263,733	-2,050	3,109	4,604	14,652	-34,432	-21,978
3538268,616	-1,663	3,119	4,228	14,652	-34,432	-21,978
3538273,499	-1,802	3,089	4,020	14,652	-34,432	-21,978
3538278,381	-1,782	3,050	3,802	14,652	-34,432	-21,978
3538283,264	-1,752	3,129	3,416	14,652	-34,432	-21,978
3538288,147	-1,792	3,010	3,406	14,652	-34,432	-21,978
3538293,030	-1,604	3,277	3,337	14,652	-34,432	-21,978
3538297,913	-1,604	3,327	3,644	14,652	-34,432	-21,978
3538302,795	-1,871	3,337	3,495	14,652	-34,432	-21,978
3538307,678	-1,812	3,455	3,624	14,652	-34,432	-21,978
3538312,561	-1,723	3,307	3,574	14,652	-34,432	-21,978
3538317,444	-1,762	3,406	3,624	14,652	-34,432	-21,978
3538322,327	-1,792	3,366	3,782	14,652	-34,432	-21,978
3538327,209	-1,901	3,653	3,782	14,652	-34,432	-21,978
3538332,092	-1,743	3,624	3,673	14,652	-34,432	-21,978
3538336,975	-1,743	3,653	3,970	14,652	-34,432	-21,978
3538341,858	-1,436	3,703	3,970	14,652	-34,432	-21,978
3538346,741	-1,475	3,743	4,010	14,652	-34,432	-21,978
3538351,624	-1,812	3,653	4,099	14,652	-34,432	-21,978
3538356,506	-2,040	3,683	4,178	14,652	-34,432	-21,978
3538361,389	-2,149	3,584	4,119	14,652	-34,432	-21,978
3538366,272	-1,921	3,644	4,149	14,652	-34,432	-21,978
3538371,155	-1,842	3,594	3,812	14,652	-34,432	-21,978
3538376,038	-1,752	3,634	3,723	14,652	-34,432	-21,978
3538380,920	-1,653	3,762	3,594	14,652	-34,432	-21,978
3538385,803	-1,703	3,564	3,574	14,652	-34,432	-21,978
3538390,686	-1,653	3,554	3,634	14,652	-34,432	-21,978
3538395,569	-1,752	3,634	3,644	14,652	-34,432	-21,978
3538400,452	-1,822	3,604	3,416	14,652	-34,432	-21,978
3538405,334	-1,832	3,634	3,248	14,652	-34,432	-21,978
3538410,217	-1,554	3,762	3,624	14,652	-34,432	-21,978
3538415,100	-1,594	3,604	3,614	14,652	-34,432	-21,978
3538419,983	-1,792	3,752	3,475	14,652	-34,432	-21,978
3538424,866	-1,495	3,614	3,554	14,652	-34,432	-21,978
3538429,749	-1,604	3,614	3,307	14,652	-34,432	-21,978
3538434,631	-1,495	3,743	3,723	14,652	-34,432	-21,978
3538439,514	-1,594	3,871	3,693	14,652	-34,432	-21,978
3538444,397	-1,614	3,812	3,663	14,652	-34,432	-21,978
3538449,280	-1,663	3,921	3,713	14,652	-34,432	-21,978
3538454,163	-1,465	4,119	3,990	14,652	-34,432	-21,978
3538459,045	-1,525	4,059	3,861	14,652	-34,432	-21,978
3538463,928	-1,574	4,020	3,931	14,652	-34,432	-21,978
3538468,811	-1,673	4,069	3,812	14,652	-34,432	-21,978
3538473,694	-1,317	3,812	3,406	14,652	-34,432	-21,978
3538478,577	-1,554	3,832	3,564	14,652	-34,432	-21,978
3538483,459	-1,554	3,792	3,772	14,652	-34,432	-21,978
3538488,342	-1,554	4,198	3,693	14,652	-34,432	-21,978
3538493,225	-1,584	3,941	3,733	14,652	-34,432	-21,978
3538498,108	-1,426	3,960	3,644	14,652	-34,432	-21,978
3538502,991	-1,406	4,287	3,683	14,652	-34,432	-21,978
3538507,874	-1,634	4,000	3,713	14,652	-34,432	-21,978
3538512,756	-1,416	3,931	3,782	14,652	-34,432	-21,978
3538517,639	-1,475	4,059	3,485	14,652	-34,432	-21,978
3538522,522	-1,416	3,921	3,743	14,652	-34,432	-21,978
3538527,405	-1,515	4,109	3,545	14,652	-34,432	-21,978
3538532,288	-1,386	3,901	3,673	14,652	-34,432	-21,978
3538537,170	-1,426	3,941	3,693	14,652	-34,432	-21,978
3538542,053	-1,446	3,990	3,772	14,652	-34,432	-21,978
3538546,936	-1,475	4,020	3,604	14,652	-34,432	-21,978
3538551,819	-1,396	4,000	3,653	14,652	-34,432	-21,978
3538556,702	-1,465	4,129	3,653	14,652	-34,432	-21,978
3538561,584	-1,465	4,109	3,644	14,652	-34,432	-21,978
3538566,467	-1,436	4,030	3,792	14,652	-34,432	-21,978
3538571,350	-1,446	3,980	3,762	14,652	-34,432	-21,978
3538576,233	-1,327	3,921	3,554	14,652	-34,432	-21,978
3538581,116	-1,317	3,822	3,564	14,652	-34,432	-21,978
3538585,999	-1,446	3,921	3,515	14,652	-34,432	-21,978
3538590,881	-1,416	4,000	3,238	14,652	-34,432	-21,978
3538595,764	-1,446	3,723	3,376	14,652	-34,432	-21,978
3538600,647	-1,505	3,851	3,683	14,652	-34,432	-21,978
3538605,530	-1,465	3,990	3,842	14,652	-34,432	-21,978
3538610,413	-1,337	4,059	3,851	14,652	-34,432	-21,978
3538615,295	-1,495	3,950	3,871	14,652	-34,432	-21,978
3538620,178	-1,317	4,089	3,663	14,652	-34,432	-21,978
3538625,061	-1,257	3,901	3,495	14,652	-34,432	-21,978
3538629,944	-1,337	4,238	3,693	14,652	-34,432	-21,978
3538634,827	-1,446	4,158	4,050	14,652	-34,432	-21,978
3538639,709	-1,455	4,069	3,723	14,652	-34,432	-21,978
3538644,592	-1,248	3,861	3,634	14,652	-34,432	-21,978
3538649,475	-1,277	4,010	3,842	14,652	-34,432	-21,978
3538654,358	-1,386	3,960	3,921	14,652	-34,432	-21,978
3538659,241	-1,307	4,050	3,861	14,652	-34,432	-21,978
3538664,124	-1,366	3,960	3,525	14,652	-34,432	-21,978
3538669,006	-1,257	3,911	3,495	14,652	-34,432	-21,978
3538673,889	-1,267	3,802	3,406	14,652	-34,432	-21,978
3538678,772	-1,119	3,812	3,554	14,652	-34,432	-21,978
3538683,655	-1,238	3,703	3,683	14,652	-34,432	-21,978
3538688,538	-1,238	3,832	3,851	14,652	-34,432	-21,978
3538693,420	-1,178	3,960	3,842	14,652	-34,432	-21,978
3538698,303	-1,257	3,960	4,010	14,652	-34,432	-21,978
3538703,186	-1,218	3,851	3,337	14,652	-34,432	-21,978
3538708,069	-1,307	3,772	3,465	14,652	-34,432	-21,978
3538712,952	-1,248	3,941	3,614	14,652	-34,432	-21,978
3538717,834	-1,069	3,941	3,644	14,652	-34,432	-21,978
3538722,717	-1,267	3,921	3,554	14,652	-34,432	-21,978
3538727,600	-1,267	4,040	3,851	14,652	-34,432	-21,978
3538732,483	-1,257	3,990	3,911	14,652	-34,432	-21,978
3538737,366	-1,089	3,941	3,931	14,652	-34,432	-21,978
3538742,249	-1,257	3,832	3,812	14,652	-34,432	-21,978
3538747,131	-1,287	3,871	3,614	14,652	-34,432	-21,978
3538752,014	-1,188	3,574	3,446	14,652	-34,432	-21,978
3538756,897	-1,218	3,713	3,257	14,652	-34,432	-21,978
3538761,780	-0,980	3,772	3,436	14,652	-34,432	-21,978
3538766,663	-1,089	3,832	3,584	14,652	-34,432	-21,978
3538771,545	-1,010	3,812	3,911	14,652	-34,432	-21,978
3538776,428	-1,050	3,832	3,881	14,652	-34,432	-21,978
3538781,311	-1,040	3,960	3,881	14,652	-34,432	-21,978
3538786,194	-1,099	3,762	3,970	14,652	-34,432	-21,978
3538791,077	-1,030	3,851	3,822	14,652	-34,432	-21,978
3538795,959	-0,990	3,990	3,713	14,652	-34,432	-21,978
3538800,842	-1,050	3,980	3,832	14,652	-34,432	-21,978
3538805,725	-0,970	3,812	3,772	14,652	-34,432	-21,978
3538810,608	-1,040	3,832	3,663	14,652	-34,432	-21,978
3538815,491	-0,812	3,772	3,733	14,652	-34,432	-21,978
3538820,374	-0,950	3,762	3,713	14,652	-34,432	-21,978
3538825,256	-0,881	3,931	3,861	14,652	-34,432	-21,978
3538830,139	-1,228	3,782	4,040	14,652	-34,432	-21,978
3538835,022	-0,901	3,792	3,921	14,652	-34,432	-21,978
3538839,905	-1,129	3,762	3,812	14,652	-34,432	-21,978
3538844,788	-1,149	3,861	3,683	14,652	-34,432	-21,978
3538849,670	-1,069	3,901	3,644	14,652	-34,432	-21,978
3538854,553	-1,069	3,861	3,693	14,652	-34,432	-21,978
3538859,436	-0,891	3,663	3,604	14,652	-34,432	-21,978
3538864,319	-1,109	3,871	3,515	14,652	-34,432	-21,978
3538869,202	-0,950	3,802	3,792	14,652	-34,432	-21,978
3538874,084	-0,970	3,802	3,564	14,652	-34,432	-21,978
3538878,967	-1,069	3,851	3,614	14,652	-34,432	-21,978
3538883,850	-0,980	3,851	3,772	14,652	-34,432	-21,978
3538888,733	-1,079	3,941	3,842	14,652	-34,432	-21,978
3538893,616	-0,901	3,911	3,911	14,652	-34,432	-21,978
3538898,499	-0,881	3,752	3,970	14,652	-34,432	-21,978
3538903,381	-0,990	3,871	3,921	14,652	-34,432	-21,978
3538908,264	-1,000	4,010	3,772	14,652	-34,432	-21,978
3538913,147	-1,050	3,871	3,802	14,652	-34,432	-21,978
3538918,030	-0,851	3,762	3,861	14,652	-34,432	-21,978
3538922,913	-0,921	3,762	3,960	14,652	-34,432	-21,978
3538927,795	-0,921	3,881	3,693	14,652	-34,432	-21,978
3538932,678	-0,911	3,980	3,752	14,652	-34,432	-21,978
3538937,561	-0,881	3,871	3,495	14,652	-34,432	-21,978
3538942,444	-1,119	3,851	3,733	14,652	-34,432	-21,978
3538947,327	-1,000	3,881	3,752	14,652	-34,432	-21,978
3538952,209	-0,980	3,782	3,762	14,652	-34,432	-21,978
3538957,092	-1,079	3,881	3,733	14,652	-34,432	-21,978
3538961,975	-1,089	3,950	3,743	14,652	-34,432	-21,978
3538966,858	-1,000	3,851	3,673	14,652	-34,432	-21,978
3538971,741	-1,030	3,970	3,713	14,652	-34,432	-21,978
3538976,624	-1,030	3,772	3,802	14,652	-34,432	-21,978
3538981,506	-0,881	3,881	3,772	14,652	-34,432	-21,978
3538986,389	-1,059	3,960	3,911	14,652	-34,432	-21,978
3538991,272	-1,109	3,950	3,851	14,652	-34,432	-21,978
3538996,155	-1,010	4,010	3,901	14,652	-34,432	-21,978
3539001,038	-1,010	3,970	3,901	14,652	-34,432	-21,978
3539005,920	-0,822	4,089	3,990	14,652	-34,432	-21,978
3539010,803	-0,881	3,911	3,891	14,652	-34,432	-21,978
3539015,686	-0,970	3,990	3,891	14,652	-34,432	-21,978
3539020,569	-0,891	3,941	3,941	14,652	-34,432	-21,978
3539025,452	-1,079	3,921	3,782	14,652	-34,432	-21,978
3539030,334	-0,990	3,970	3,901	14,652	-34,432	-21,978
3539035,217	-0,911	3,891	3,554	14,652	-34,432	-21,978
3539040,100	-1,109	3,941	3,842	14,652	-34,432	-21,978
3539044,983	-0,950	3,931	3,545	14,652	-34,432	-21,978
3539049,866	-0,931	3,861	3,703	14,652	-34,432	-21,978
3539054,749	-0,931	3,960	3,614	14,652	-34,432	-21,978
3539059,631	-0,950	3,802	3,683	14,652	-34,432	-21,978
3539064,514	-1,050	4,030	3,802	14,652	-34,432	-21,978
3539069,397	-0,980	4,099	3,584	14,652	-34,432	-21,978
3539074,280	-0,901	4,030	3,574	14,652	-34,432	-21,978
3539079,163	-1,020	3,960	3,861	14,652	-34,432	-21,978
3539084,045	-0,950	3,901	3,772	14,652	-34,432	-21,978
3539088,928	-0,960	3,970	3,703	14,652	-34,432	-21,978
3539093,811	-1,089	3,891	3,733	14,652	-34,432	-21,978
3539098,694	-1,059	4,050	3,762	14,652	-34,432	-21,978
3539103,577	-1,000	3,881	4,010	14,652	-34,432	-21,978
3539108,459	-0,871	3,911	3,812	14,652	-34,432	-21,978
3539113,342	-1,059	3,802	3,535	14,652	-34,432	-21,978
3539118,225	-1,050	3,822	3,743	14,652	-34,432	-21,978
3539123,108	-1,089	3,941	3,733	14,652	-34,432	-21,978
3539127,991	-0,980	3,871	3,871	14,652	-34,432	-21,978
3539132,874	-1,059	3,980	3,970	14,652	-34,432	-21,978
3539137,756	-1,059	3,881	3,822	14,652	-34,432	-21,978
3539142,639	-1,040	4,059	3,941	14,652	-34,432	-21,978
3539147,522	-0,990	3,931	3,782	14,652	-34,432	-21,978
3539152,405	-0,960	3,851	3,782	14,652	-34,432	-21,978
3539157,288	-0,950	3,911	3,921	14,652	-34,432	-21,978
3539162,170	-1,050	3,881	3,980	14,652	-34,432	-21,978
3539167,053	-0,980	3,960	3,772	14,652	-34,432	-21,978
3539171,936	-1,267	4,238	3,584	14,652	-34,432	-21,978
3539176,819	-0,931	4,129	3,762	14,652	-34,432	-21,978
3539181,702	-0,861	3,980	3,842	14,652	-34,432	-21,978
3539186,584	-0,772	3,723	3,911	14,652	-34,432	-21,978
3539191,467	-1,020	3,970	3,772	14,652	-34,432	-21,978
3539196,350	-0,911	3,673	3,713	14,652	-34,432	-21,978
3539201,233	-1,069	3,663	3,752	14,652	-34,432	-21,978
3539206,116	-1,119	3,743	3,743	14,652	-34,432	-21,978
3539210,999	-0,970	3,752	3,663	14,652	-34,432	-21,978
3539215,881	-1,168	3,891	3,842	14,652	-34,432	-21,978
3539220,764	-1,040	3,822	3,723	14,652	-34,432	-21,978
3539225,647	-1,000	3,941	3,861	14,652	-34,432	-21,978
3539230,530	-0,990	3,693	3,743	14,652	-34,432	-21,978
3539235,413	-0,832	3,733	3,733	14,652	-34,432	-21,978
3539240,295	-1,089	3,772	3,554	14,652	-34,432	-21,978
3539245,178	-1,000	3,723	3,416	14,652	-34,432	-21,978
3539250,061	-0,891	3,931	3,644	14,652	-34,432	-21,978
3539254,944	-1,020	3,960	3,624	14,652	-34,432	-21,978
3539259,827	-0,861	4,000	3,950	14,652	-34,432	-21,978
3539264,709	-0,812	4,059	3,970	14,652	-34,432	-21,978
3539269,592	-0,822	3,950	4,079	14,652	-34,432	-21,978
3539274,475	-0,881	3,960	4,020	14,652	-34,432	-21,978
3539279,358	-0,762	3,851	4,010	14,652	-34,432	-21,978
3539284,241	-0,802	3,871	3,782	14,652	-34,432	-21,978
3539289,124	-0,970	4,020	3,832	14,652	-34,432	-21,978
3539294,006	-0,802	3,941	3,792	14,652	-34,432	-21,978
3539298,889	-0,871	3,782	3,901	14,652	-34,432	-21,978
3539303,772	-0,891	4,020	3,762	14,652	-34,432	-21,978
3539308,655	-0,921	3,970	3,960	14,652	-34,432	-21,978
3539313,538	-0,842	3,901	3,881	14,652	-34,432	-21,978
3539318,420	-0,950	4,040	3,822	14,652	-34,432	-21,978
3539323,303	-0,861	3,941	3,950	14,652	-34,432	-21,978
3539328,186	-0,871	3,960	3,792	14,652	-34,432	-21,978
3539333,069	-0,950	3,891	3,980	14,652	-34,432	-21,978
3539337,952	-0,990	3,931	4,178	14,652	-34,432	-21,978
3539342,834	-0,822	3,901	4,109	14,652	-34,432	-21,978
3539347,717	-1,030	3,851	3,950	14,652	-34,432	-21,978
3539352,600	-0,921	3,812	3,901	14,652	-34,432	-21,978
3539357,483	-0,921	3,960	3,752	14,652	-34,432	-21,978
3539362,366	-0,921	3,743	3,743	14,652	-34,432	-21,978
3539367,249	-0,931	3,772	3,842	14,652	-34,432	-21,978
3539372,131	-0,851	3,782	3,772	14,652	-34,432	-21,978
3539377,014	-0,980	3,723	3,782	14,652	-34,432	-21,978
3539381,897	-0,842	3,802	3,881	14,652	-34,432	-21,978
3539386,780	-0,663	3,931	3,960	14,652	-34,432	-21,978
3539391,663	-0,812	3,921	3,802	14,652	-34,432	-21,978
3539396,545	-0,861	3,970	3,891	14,652	-34,432	-21,978
3539401,428	-0,812	3,941	3,931	14,652	-34,432	-21,978
3539406,311	-0,941	4,059	3,891	14,652	-34,432	-21,978
3539411,194	-0,980	4,099	3,624	14,652	-34,432	-21,978
3539416,077	-1,020	3,861	3,644	14,652	-34,432	-21,978
3539420,959	-0,891	3,980	3,743	14,652	-34,432	-21,978
3539425,842	-1,089	3,911	3,564	14,652	-34,432	-21,978
3539430,725	-0,941	3,911	3,673	14,652	-34,432	-21,978
3539435,608	-0,891	3,812	3,861	14,652	-34,432	-21,978
3539440,491	-0,851	3,842	3,950	14,652	-34,432	-21,978
3539445,374	-0,772	3,891	3,980	14,652	-34,432	-21,978
3539450,256	-0,950	3,941	3,881	14,652	-34,432	-21,978
3539455,139	-0,842	3,861	4,079	14,652	-34,432	-21,978
3539460,022	-0,960	3,891	3,931	14,652	-34,432	-21,978
3539464,905	-0,861	3,782	3,851	14,652	-34,432	-21,978
3539469,788	-0,782	3,851	3,822	14,652	-34,432	-21,978
3539474,670	-0,822	3,980	3,634	14,652	-34,432	-21,978
3539479,553	-0,743	3,812	3,743	14,652	-34,432	-21,978
3539484,436	-0,812	3,891	3,485	14,652	-34,432	-21,978
3539489,319	-0,901	3,733	3,495	14,652	-34,432	-21,978
3539494,202	-0,812	3,713	3,426	14,652	-34,432	-21,978
3539499,084	-0,950	3,802	3,832	14,652	-34,432	-21,978
3539503,967	-0,822	3,822	3,752	14,652	-34,432	-21,978
3539508,850	-0,911	3,901	3,802	14,652	-34,432	-21,978
3539513,733	-0,960	3,921	3,931	14,652	-34,432	-21,978
3539518,616	-0,901	3,941	3,842	14,652	-34,432	-21,978
3539523,499	-0,792	3,941	3,792	14,652	-34,432	-21,978
3539528,381	-1,069	3,842	3,297	14,652	-34,432	-21,978
3539533,264	-0,832	3,931	3,693	14,652	-34,432	-21,978
3539538,147	-0,911	3,881	3,653	14,652	-34,432	-21,978
3539543,030	-0,832	4,030	3,812	14,652	-34,432	-21,978
3539547,913	-0,733	3,891	3,505	14,652	-34,432	-21,978
3539552,795	-0,762	3,752	3,683	14,652	-34,432	-21,978
3539557,678	-0,386	3,950	3,842	14,652	-34,432	-21,978
3539562,561	-0,851	3,931	3,723	14,652	-34,432	-21,978
3539567,444	-0,871	4,059	3,842	14,652	-34,432	-21,978
3539572,327	-0,653	4,257	3,881	14,652	-34,432	-21,978
3539577,209	-0,792	4,020	3,851	14,652	-34,432	-21,978
3539582,092	-0,733	3,911	3,911	14,652	-34,432	-21,978
3539586,975	-0,822	3,772	3,762	14,652	-34,432	-21,978
3539591,858	-0,723	3,792	3,693	14,652	-34,432	-21,978
3539596,741	-0,713	3,762	3,624	14,652	-34,432	-21,978
3539601,624	-0,822	3,960	3,564	14,652	-34,432	-21,978
3539606,506	-0,861	3,911	3,554	14,652	-34,432	-21,978
3539611,389	-0,812	3,812	3,752	14,652	-34,432	-21,978
3539616,272	-0,802	3,792	3,842	14,652	-34,432	-21,978
3539621,155	-0,861	3,752	3,733	14,652	-34,432	-21,978
3539626,038	-0,970	3,792	3,842	14,652	-34,432	-21,978
3539630,920	-0,673	3,762	3,950	14,652	-34,432	-21,978
3539635,803	-0,792	3,901	3,990	14,652	-34,432	-21,978
3539640,686	-0,782	3,871	3,931	14,652	-34,432	-21,978
3539645,569	-0,733	3,812	4,109	14,652	-34,432	-21,978
3539650,452	-0,842	3,851	3,980	14,652	-34,432	-21,978
3539655,334	-0,782	3,861	3,871	14,652	-34,432	-21,978
3539660,217	-0,663	3,723	3,723	14,652	-34,432	-21,978
3539665,100	-0,743	3,891	3,693	14,652	-34,432	-21,978
3539669,983	-0,752	3,822	3,594	14,652	-34,432	-21,978
3539674,866	-0,782	3,703	3,792	14,652	-34,432	-21,978
3539679,749	-0,842	3,941	3,762	14,652	-34,432	-21,978
3539684,631	-0,792	3,842	3,822	14,652	-34,432	-21,978
3539689,514	-0,782	3,881	3,653	14,652	-34,432	-21,978
3539694,397	-0,842	3,941	3,822	14,652	-34,432	-21,978
3539699,280	-0,802	3,990	3,812	14,652	-34,432	-21,978
3539704,163	-0,891	4,109	3,871	14,652	-34,432	-21,978
3539709,045	-0,861	3,861	3,950	14,652	-34,432	-21,978
3539713,928	-0,802	4,020	3,980	14,652	-34,432	-21,978
3539718,811	-0,644	3,931	4,050	14,652	-34,432	-21,978
3539723,694	-0,792	3,891	3,990	14,652	-34,432	-21,978
3539728,577	-0,693	3,881	3,941	14,652	-34,432	-21,978
3539733,459	-0,723	3,921	3,911	14,652	-34,432	-21,978
3539738,342	-0,723	3,851	3,723	14,652	-34,432	-21,978
3539743,225	-0,782	3,802	3,743	14,652	-34,432	-21,978
3539748,108	-0,772	4,020	3,901	14,652	-34,432	-21,978
3539752,991	-0,752	4,000	4,059	14,652	-34,432	-21,978
3539757,874	-0,762	3,931	3,941	14,652	-34,432	-21,978
3539762,756	-0,812	4,020	3,802	14,652	-34,432	-21,978
3539767,639	-0,703	3,970	3,673	14,652	-34,432	-21,978
3539772,522	-0,911	3,881	3,772	14,652	-34,432	-21,978
3539777,405	-0,861	3,941	3,802	14,652	-34,432	-21,978
3539782,288	-0,772	3,960	3,980	14,652	-34,432	-21,978
3539787,170	-0,990	3,871	4,030	14,652	-34,432	-21,978
3539792,053	-0,861	3,822	3,911	14,652	-34,432	-21,978
3539796,936	-0,822	3,980	3,901	14,652	-34,432	-21,978
3539801,819	-0,832	3,851	3,653	14,652	-34,432	-21,978
3539806,702	-0,861	4,050	3,752	14,652	-34,432	-21,978
3539811,584	-0,673	3,960	3,950	14,652	-34,432	-21,978
3539816,467	-0,812	3,970	3,871	14,652	-34,432	-21,978
3539821,350	-0,842	3,812	3,644	14,652	-34,432	-21,978
3539826,233	-0,881	3,762	3,465	14,652	-34,432	-21,978
3539831,116	-0,861	3,980	3,733	14,652	-34,432	-21,978
3539835,999	-0,891	4,020	3,851	14,652	-34,432	-21,978
3539840,881	-0,614	3,911	3,901	14,652	-34,432	-21,978
3539845,764	-0,772	3,891	4,040	14,652	-34,432	-21,978
3539850,647	-0,782	3,842	4,020	14,652	-34,432	-21,978
3539855,530	-0,762	3,911	3,782	14,652	-34,432	-21,978
3539860,413	-0,723	3,901	3,653	14,652	-34,432	-21,978
3539865,295	-0,743	3,990	3,624	14,652	-34,432	-21,978
3539870,178	-0,723	3,921	3,703	14,652	-34,432	-21,978
3539875,061	-0,703	3,901	3,881	14,652	-34,432	-21,978
3539879,944	-0,713	4,050	3,941	14,652	-34,432	-21,978
3539884,827	-0,881	3,733	3,663	14,652	-34,432	-21,978
3539889,709	-0,822	3,842	4,208	14,652	-34,432	-21,978
3539894,592	-0,832	3,931	3,931	14,652	-34,432	-21,978
3539899,475	-0,535	3,970	3,564	14,652	-34,432	-21,978
3539904,358	-0,931	4,030	4,089	14,652	-34,432	-21,978
3539909,241	-0,782	3,901	3,861	14,652	-34,432	-21,978
3539914,124	-0,871	4,149	3,792	14,652	-34,432	-21,978
3539919,006	-0,842	3,733	3,693	14,652	-34,432	-21,978
3539923,889	-0,733	4,069	3,733	14,652	-34,432	-21,978
3539928,772	-0,822	3,851	3,505	14,652	-34,432	-21,978
3539933,655	-0,782	3,832	3,614	14,652	-34,432	-21,978
3539938,538	-1,000	4,317	3,564	14,652	-34,432	-21,978
3539943,420	-0,782	4,059	3,634	14,652	-34,432	-21,978
3539948,303	-0,752	4,020	3,871	14,652	-34,432	-21,978
3539953,186	-0,713	3,980	3,891	14,652	-34,432	-21,978
3539958,069	-0,683	4,158	3,792	14,652	-34,432	-21,978
3539962,952	-0,832	3,970	3,931	14,652	-34,432	-21,978
3539967,834	-0,653	3,980	4,069	14,652	-34,432	-21,978
3539972,717	-0,713	3,950	4,168	14,652	-34,432	-21,978
3539977,600	-0,752	3,980	4,238	14,652	-34,432	-21,978
3539982,483	-0,713	4,010	4,178	14,652	-34,432	-21,978
3539987,366	-0,782	4,000	3,960	14,652	-34,432	-21,978
3539992,249	-0,881	4,010	3,881	14,652	-34,432	-21,978
3539997,131	-0,762	3,832	3,970	14,652	-34,432	-21,978
3540002,014	-0,743	3,842	3,574	14,652	-34,432	-21,978
3540006,897	-0,812	3,683	3,594	14,652	-34,432	-21,978
3540011,780	-0,921	3,752	3,307	14,652	-34,432	-21,978
3540016,663	-0,871	3,822	3,485	14,652	-34,432	-21,978
3540021,545	-0,772	3,990	3,673	14,652	-34,432	-21,978
3540026,428	-0,644	4,010	3,584	14,652	-34,432	-21,978
3540031,311	-0,733	3,743	3,851	14,652	-34,432	-21,978
3540036,194	-0,812	3,733	3,861	14,652	-34,432	-21,978
3540041,077	-0,851	4,000	3,891	14,652	-34,432	-21,978
3540045,959	-0,713	3,911	3,733	14,652	-34,432	-21,978
3540050,842	-0,861	3,990	4,010	14,652	-34,432	-21,978
3540055,725	-0,733	3,931	3,762	14,652	-34,432	-21,978
3540060,638	-0,762	3,960	3,950	14,652	-34,432	-21,978
3540065,491	-0,693	3,931	3,911	14,652	-34,432	-21,978
3540070,374	-0,743	3,842	4,079	14,652	-34,432	-21,978
3540075,256	-0,901	3,931	3,851	14,652	-34,432	-21,978
3540080,139	-0,624	3,931	4,069	14,652	-34,432	-21,978
3540085,022	-0,733	3,832	4,257	14,652	-34,432	-21,978
3540089,905	-0,782	3,891	4,208	14,652	-34,432	-21,978
3540094,788	-0,594	3,950	4,149	14,652	-34,432	-21,978
3540099,670	-0,673	3,851	4,000	14,652	-34,432	-21,978
3540104,553	-0,703	3,772	4,040	14,652	-34,432	-21,978
3540109,436	-0,663	3,842	3,861	14,652	-34,432	-21,978
3540114,319	-0,614	3,713	3,703	14,652	-34,432	-21,978
3540119,202	-0,574	3,822	3,950	14,652	-34,432	-21,978
3540124,084	-0,614	3,901	3,762	14,652	-34,432	-21,978
3540128,967	-0,713	3,832	3,683	14,652	-34,432	-21,978
3540133,850	-0,574	3,733	3,743	14,652	-34,432	-21,978
3540138,733	-0,594	3,970	3,871	14,652	-34,432	-21,978
3540143,616	-0,713	3,663	4,000	14,652	-34,432	-21,978
3540148,499	-0,525	3,851	4,149	14,652	-34,432	-21,978
3540153,381	-0,554	3,802	4,069	14,652	-34,432	-21,978
3540158,264	-0,723	3,980	4,050	14,652	-34,432	-21,978
3540163,147	-0,495	3,950	4,267	14,652	-34,432	-21,978
3540168,030	-0,564	3,772	4,109	14,652	-34,432	-21,978
3540172,913	-0,525	3,881	4,277	14,652	-34,432	-21,978
3540177,795	-0,356	3,743	4,129	14,652	-34,432	-21,978
3540182,678	-0,446	3,851	4,307	14,652	-34,432	-21,978
3540187,561	-0,693	3,822	4,347	14,652	-34,432	-21,978
3540192,444	-0,426	3,881	4,089	14,652	-34,432	-21,978
3540197,327	-0,099	3,327	4,208	14,652	-34,432	-21,978
3540202,209	0,218	3,554	4,455	14,652	-34,432	-21,978
3540207,092	-0,376	3,574	4,050	14,652	-34,432	-21,978
3540211,975	-0,119	3,861	4,030	14,652	-34,432	-21,978
3540216,858	0,069	3,960	4,168	14,652	-34,432	-21,978
3540221,741	0,000	4,020	4,792	14,652	-34,432	-21,978
3540226,624	0,822	3,703	4,772	14,652	-34,432	-21,978
3540231,506	0,277	3,772	4,416	14,652	-34,432	-21,978
3540236,420	0,396	3,574	4,386	14,652	-34,432	-21,978
3540241,272	0,455	3,733	4,000	14,652	-34,432	-21,978
3540246,155	0,277	4,158	4,030	14,652	-34,432	-21,978
3540251,038	0,614	4,287	3,653	14,652	-34,432	-21,978
3540255,920	0,693	4,554	3,594	14,652	-34,432	-21,978
3540260,803	0,842	4,495	3,614	14,652	-34,432	-21,978
3540265,686	1,050	4,446	4,000	14,652	-34,432	-21,978
3540270,569	1,099	4,475	3,792	14,652	-34,432	-21,978
3540275,452	1,178	4,040	3,366	14,652	-34,432	-21,978
3540280,334	1,178	4,178	3,010	14,652	-34,432	-21,978
3540285,217	1,109	4,050	2,950	14,652	-34,432	-21,978
3540290,100	1,287	4,366	2,594	14,652	-34,432	-21,978
3540294,983	1,168	4,337	3,693	14,652	-34,432	-21,978
3540299,866	0,663	4,416	4,317	14,652	-34,432	-21,978
3540304,749	0,713	5,376	3,653	14,652	-34,432	-21,978
3540309,631	1,554	6,020	3,772	14,652	-34,432	-21,978
3540314,514	1,980	5,703	4,109	14,652	-34,432	-21,978
3540319,397	2,426	4,911	5,436	14,652	-34,432	-21,978
3540324,280	6,040	2,693	3,970	14,652	-34,432	-21,978
3540329,163	0,970	4,050	2,970	14,652	-34,432	-21,978
3540334,045	1,129	3,723	3,426	14,652	-34,432	-21,978
3540338,928	1,485	4,505	2,822	14,652	-34,432	-21,978
3540343,811	1,931	5,485	2,723	14,652	-34,432	-21,978
3540348,694	2,337	5,901	2,980	14,652	-34,432	-21,978
3540353,577	2,198	7,178	2,109	14,652	-34,432	-21,978
3540358,459	1,792	8,525	0,158	14,652	-34,432	-21,978
3540363,342	1,139	9,376	-0,515	14,652	-34,432	-21,978
3540368,225	1,455	10,198	0,040	14,652	-34,432	-21,978
3540373,108	2,822	10,743	0,396	14,652	-34,432	-21,978
3540377,991	3,594	11,970	0,158	14,652	-34,432	-21,978
3540382,874	4,406	12,337	0,327	14,652	-34,432	-21,978
3540387,756	2,772	11,723	3,218	14,652	-34,432	-21,978
3540392,639	3,287	10,010	1,663	14,652	-34,432	-21,978
3540397,522	3,119	9,683	-1,832	14,652	-34,432	-21,978
3540402,405	2,416	10,822	-2,594	14,652	-34,432	-21,978
3540407,288	2,475	11,139	-2,119	14,652	-34,432	-21,978
3540412,170	2,614	11,089	-1,634	14,652	-34,432	-21,978
3540417,053	2,832	10,842	-1,535	14,652	-34,432	-21,978
3540421,936	2,634	11,149	-1,149	14,652	-34,432	-21,978
3540426,819	2,347	11,416	-1,149	14,652	-34,432	-21,978
3540431,702	2,317	11,634	-1,337	14,652	-34,432	-21,978
3540436,584	1,950	11,713	-1,683	14,652	-34,432	-21,978
3540441,467	1,584	11,762	-2,040	14,652	-34,432	-21,978
3540446,350	1,406	11,426	-2,277	14,652	-34,432	-21,978
3540451,233	1,287	11,010	-2,594	14,652	-34,432	-21,978
3540456,116	0,861	10,624	-2,703	14,652	-34,432	-21,978
3540460,999	0,752	10,426	-2,792	14,652	-34,432	-21,978
3540465,881	0,881	10,277	-2,832	14,652	-34,432	-21,978
3540470,764	1,109	10,436	-2,881	14,652	-34,432	-21,978
3540475,647	1,218	10,297	-3,069	14,652	-34,432	-21,978
3540480,530	1,485	10,238	-3,208	14,652	-34,432	-21,978
3540485,413	1,089	10,515	-3,198	14,652	-34,432	-21,978
3540490,295	1,089	10,366	-3,564	14,652	-34,432	-21,978
3540495,178	0,941	10,386	-3,545	14,652	-34,432	-21,978
3540500,061	0,673	10,337	-3,574	14,652	-34,432	-21,978
3540504,944	0,446	10,703	-3,416	14,652	-34,432	-21,978
3540509,827	0,257	10,703	-3,218	14,652	-34,432	-21,978
3540514,709	0,000	10,752	-3,228	14,652	-34,432	-21,978
3540519,592	0,020	10,861	-3,228	14,652	-34,432	-21,978
3540524,475	-0,238	10,614	-3,337	14,652	-34,432	-21,978
3540529,358	-0,188	10,416	-3,327	14,652	-34,432	-21,978
3540534,241	-0,347	9,921	-3,267	14,652	-34,432	-21,978
3540539,124	-0,455	9,743	-3,396	14,652	-34,432	-21,978
3540544,006	-0,574	9,505	-3,673	14,652	-34,432	-21,978
3540548,889	-0,634	9,188	-3,802	14,652	-34,432	-21,978
3540553,772	-0,337	8,921	-4,000	14,652	-34,432	-21,978
3540558,655	0,040	8,703	-3,812	14,652	-34,432	-21,978
3540563,538	0,644	7,525	-3,762	14,652	-34,432	-21,978
3540568,420	1,941	5,564	-4,376	14,652	-34,432	-21,978
3540573,303	2,822	4,881	-5,000	14,652	-34,432	-21,978
3540578,186	1,743	7,248	-4,376	14,652	-34,432	-21,978
3540583,069	-0,010	10,238	-3,822	14,652	-34,432	-21,978
3540587,952	-2,545	10,406	-3,020	14,652	-34,432	-21,978
3540592,834	-0,574	8,851	-2,020	14,652	-34,432	-21,978
3540597,717	-0,050	8,574	-2,396	14,652	-34,432	-21,978
3540602,600	-0,069	8,564	-3,238	14,652	-34,432	-21,978
3540607,483	0,208	8,822	-3,980	14,652	-34,432	-21,978
3540612,366	0,723	9,059	-3,881	14,652	-34,432	-21,978
3540617,249	0,950	9,208	-3,673	14,652	-34,432	-21,978
3540622,131	1,376	9,228	-3,297	14,652	-34,432	-21,978
3540627,014	1,307	9,248	-2,713	14,652	-34,432	-21,978
3540631,897	1,515	8,950	-2,446	14,652	-34,432	-21,978
3540636,780	1,168	9,030	-2,564	14,652	-34,432	-21,978
3540641,663	0,931	8,366	-2,871	14,652	-34,432	-21,978
3540646,545	0,990	8,327	-3,307	14,652	-34,432	-21,978
3540651,428	0,851	8,050	-3,564	14,652	-34,432	-21,978
3540656,311	0,832	7,812	-3,663	14,652	-34,432	-21,978
3540661,194	1,287	7,762	-3,366	14,652	-34,432	-21,978
3540666,077	1,822	7,822	-3,168	14,652	-34,432	-21,978
3540670,959	2,158	8,030	-3,416	14,652	-34,432	-21,978
3540675,842	2,584	8,634	-3,455	14,652	-34,432	-21,978
3540680,725	2,238	9,307	-3,683	14,652	-34,432	-21,978
3540685,608	2,050	9,881	-3,921	14,652	-34,432	-21,978
3540690,491	1,475	10,792	-4,149	14,652	-34,432	-21,978
3540695,374	1,901	11,624	-4,416	14,652	-34,432	-21,978
3540700,256	3,000	11,792	-4,822	14,652	-34,432	-21,978
3540705,139	3,525	12,861	-4,000	14,652	-34,432	-21,978
3540710,022	4,614	12,406	-2,574	14,652	-34,432	-21,978
3540714,905	4,525	11,465	-3,337	14,652	-34,432	-21,978
3540719,788	5,188	11,109	-3,267	14,652	-34,432	-21,978
3540724,670	5,218	10,911	-2,842	14,652	-34,432	-21,978
3540729,553	5,228	10,386	-2,851	14,652	-34,432	-21,978
3540734,436	4,970	9,327	-3,040	14,652	-34,432	-21,978
3540739,319	4,931	8,327	-3,010	14,652	-34,432	-21,978
3540744,202	4,822	7,396	-3,000	14,652	-34,432	-21,978
3540749,084	4,653	6,921	-3,228	14,652	-34,432	-21,978
3540753,967	4,733	6,634	-3,228	14,652	-34,432	-21,978
3540758,850	4,634	6,663	-3,178	14,652	-34,432	-21,978
3540763,733	5,040	6,743	-3,257	14,652	-34,432	-21,978
3540768,616	5,792	6,713	-2,851	14,652	-34,432	-21,978
3540773,499	6,228	7,089	-2,644	14,652	-34,432	-21,978
3540778,381	6,455	7,584	-2,455	14,652	-34,432	-21,978
3540783,264	6,812	7,832	-2,238	14,652	-34,432	-21,978
3540788,147	6,743	7,960	-2,089	14,652	-34,432	-21,978
3540793,030	6,782	8,010	-2,089	14,652	-34,432	-21,978
3540797,913	6,891	8,109	-1,891	14,652	-34,432	-21,978
3540802,795	7,030	8,238	-1,842	14,652	-34,432	-21,978
3540807,678	6,743	8,505	-1,752	14,652	-34,432	-21,978
3540812,561	7,010	8,010	-1,485	14,652	-34,432	-21,978
3540817,444	7,416	7,683	-1,129	14,652	-34,432	-21,978
3540822,327	7,416	7,267	-1,149	14,652	-34,432	-21,978
3540827,209	7,535	6,861	-0,822	14,652	-34,432	-21,978
3540832,092	7,634	6,515	-0,802	14,652	-34,432	-21,978
3540836,975	7,842	6,594	-0,970	14,652	-34,432	-21,978
3540841,858	7,515	6,743	-1,099	14,652	-34,432	-21,978
3540846,741	7,554	6,762	-0,881	14,652	-34,432	-21,978
3540851,624	7,297	6,366	-0,921	14,652	-34,432	-21,978
3540856,506	7,178	6,208	-1,000	14,652	-34,432	-21,978
3540861,389	7,050	5,941	-1,129	14,652	-34,432	-21,978
3540866,272	6,752	6,158	-1,238	14,652	-34,432	-21,978
3540871,155	6,713	6,337	-1,356	14,652	-34,432	-21,978
3540876,038	6,307	6,545	-1,337	14,652	-34,432	-21,978
3540880,920	6,515	6,574	-1,139	14,652	-34,432	-21,978
3540885,803	6,406	6,752	-1,158	14,652	-34,432	-21,978
3540890,686	6,713	7,079	-1,475	14,652	-34,432	-21,978
3540895,569	7,475	6,594	-1,673	14,652	-34,432	-21,978
3540900,452	8,485	7,436	-2,703	14,652	-34,432	-21,978
3540905,334	7,644	11,347	0,347	14,652	-34,432	-21,978
3540910,217	6,921	12,941	0,733	14,652	-34,432	-21,978
3540915,100	5,802	13,426	-0,594	14,652	-34,432	-21,978
3540919,983	4,970	12,545	-1,366	14,652	-34,432	-21,978
3540924,866	4,743	11,218	-1,614	14,652	-34,432	-21,978
3540929,749	4,871	9,901	-1,792	14,652	-34,432	-21,978
3540934,631	5,337	9,149	-1,525	14,652	-34,432	-21,978
3540939,514	5,495	8,663	-1,545	14,652	-34,432	-21,978
3540944,397	5,802	8,059	-1,545	14,652	-34,432	-21,978
3540949,280	5,574	7,743	-1,495	14,652	-34,432	-21,978
3540954,163	5,020	7,644	-1,802	14,652	-34,432	-21,978
3540959,045	4,881	7,802	-1,733	14,652	-34,432	-21,978
3540963,928	4,317	8,109	-1,990	14,652	-34,432	-21,978
3540968,811	3,931	7,950	-2,178	14,652	-34,432	-21,978
3540973,694	3,871	8,515	-2,218	14,652	-34,432	-21,978
3540978,577	3,634	8,634	-2,099	14,652	-34,432	-21,978
3540983,459	3,545	9,317	-1,337	14,652	-34,432	-21,978
3540988,342	4,020	9,525	-1,921	14,652	-34,432	-21,978
3540993,225	4,119	9,733	-1,881	14,652	-34,432	-21,978
3540998,108	4,099	9,604	-1,851	14,652	-34,432	-21,978
3541002,991	4,386	8,891	-2,059	14,652	-34,432	-21,978
3541007,874	4,238	8,465	-1,921	14,652	-34,432	-21,978
3541012,756	6,257	7,119	-1,980	14,652	-34,432	-21,978
3541017,639	9,129	6,287	-0,287	14,652	-34,432	-21,978
3541022,522	5,733	7,287	-0,109	14,652	-34,432	-21,978
3541027,405	3,851	7,663	-2,238	14,652	-34,432	-21,978
3541032,288	3,158	7,059	-3,238	14,652	-34,432	-21,978
3541037,170	2,871	7,307	-2,941	14,652	-34,432	-21,978
3541042,053	3,079	8,069	-2,505	14,652	-34,432	-21,978
3541046,936	3,010	8,564	-2,861	14,652	-34,432	-21,978
3541051,819	2,495	8,970	-3,436	14,652	-34,432	-21,978
3541056,702	2,050	9,327	-3,723	14,652	-34,432	-21,978
3541061,584	1,802	9,733	-3,851	14,652	-34,432	-21,978
3541066,467	1,564	9,564	-3,812	14,652	-34,432	-21,978
3541071,350	1,594	9,624	-3,881	14,652	-34,432	-21,978
3541076,233	1,624	9,455	-4,020	14,652	-34,432	-21,978
3541081,116	2,010	9,238	-4,000	14,652	-34,432	-21,978
3541085,999	2,257	9,149	-3,772	14,652	-34,432	-21,978
3541090,881	2,505	9,198	-3,564	14,652	-34,432	-21,978
3541095,764	2,584	9,317	-3,347	14,652	-34,432	-21,978
3541100,647	2,762	9,693	-3,366	14,652	-34,432	-21,978
3541105,530	2,802	10,020	-3,000	14,652	-34,432	-21,978
3541110,413	3,109	10,455	-3,188	14,652	-34,432	-21,978
3541115,295	2,822	10,574	-3,188	14,652	-34,432	-21,978
3541120,178	2,436	10,584	-3,347	14,652	-34,432	-21,978
3541125,061	2,178	10,624	-3,515	14,652	-34,432	-21,978
3541129,944	1,792	10,366	-3,693	14,652	-34,432	-21,978
3541134,827	1,713	10,010	-3,822	14,652	-34,432	-21,978
3541139,709	1,644	9,723	-3,871	14,652	-34,432	-21,978
3541144,592	1,564	9,208	-4,030	14,652	-34,432	-21,978
3541149,475	1,307	8,505	-4,287	14,652	-34,432	-21,978
3541154,358	1,059	7,881	-4,356	14,652	-34,432	-21,978
3541159,241	1,030	7,564	-4,604	14,652	-34,432	-21,978
3541164,124	1,109	7,653	-4,614	14,652	-34,432	-21,978
3541169,006	1,168	7,901	-4,297	14,652	-34,432	-21,978
3541173,889	0,950	8,218	-4,386	14,652	-34,432	-21,978
3541178,772	0,901	8,386	-4,089	14,652	-34,432	-21,978
3541183,655	0,980	9,188	-4,000	14,652	-34,432	-21,978
3541188,538	0,802	9,792	-4,168	14,652	-34,432	-21,978
3541193,420	0,980	10,198	-3,911	14,652	-34,432	-21,978
3541198,303	5,653	20,069	6,703	14,652	-34,432	-21,978
3541203,186	-2,733	13,475	2,634	14,652	-34,432	-21,978
3541208,069	0,119	6,822	0,040	14,652	-34,432	-21,978
3541212,952	2,634	11,396	-2,990	14,652	-34,432	-21,978
3541217,834	0,851	5,752	1,317	14,652	-34,432	-21,978
3541222,717	0,931	6,149	8,960	14,652	-34,432	-21,978
3541227,600	0,426	7,891	-4,970	14,652	-34,432	-21,978
3541232,483	1,762	8,376	-3,634	14,652	-34,432	-21,978
3541237,366	1,426	8,564	-2,941	14,652	-34,432	-21,978
3541242,249	1,505	8,475	-2,851	14,652	-34,432	-21,978
3541247,131	1,663	8,356	-3,000	14,652	-34,432	-21,978
3541252,014	1,683	8,663	-2,970	14,652	-34,432	-21,978
3541256,897	1,772	8,495	-3,188	14,652	-34,432	-21,978
3541261,780	1,980	8,436	-3,287	14,652	-34,432	-21,978
3541266,663	1,980	8,574	-3,287	14,652	-34,432	-21,978
3541271,545	2,099	8,554	-3,703	14,652	-34,432	-21,978
3541276,428	1,960	8,604	-3,713	14,652	-34,432	-21,978
3541281,311	1,079	8,743	-3,356	14,652	-34,432	-21,978
3541286,224	1,644	8,525	-3,693	14,652	-34,432	-21,978
3541291,077	2,515	8,416	-1,990	14,652	-34,432	-21,978
3541295,959	0,802	8,762	-3,436	14,652	-34,432	-21,978
3541300,842	0,921	8,871	-4,277	14,652	-34,432	-21,978
3541305,725	0,762	8,683	-4,149	14,652	-34,432	-21,978
3541310,608	0,901	8,347	-4,040	14,652	-34,432	-21,978
3541315,491	0,990	8,624	-3,733	14,652	-34,432	-21,978
3541320,374	1,238	8,802	-3,604	14,652	-34,432	-21,978
3541325,256	1,168	8,287	-3,891	14,652	-34,432	-21,978
3541330,139	2,267	8,545	-2,743	14,652	-34,432	-21,978
3541335,022	1,050	8,683	-2,584	14,652	-34,432	-21,978
3541339,905	1,366	8,525	-3,050	14,652	-34,432	-21,978
3541344,788	1,287	8,455	-2,881	14,652	-34,432	-21,978
3541349,670	1,535	8,564	-2,941	14,652	-34,432	-21,978
3541354,553	1,059	8,812	-3,198	14,652	-34,432	-21,978
3541359,436	1,208	8,881	-3,069	14,652	-34,432	-21,978
3541364,319	1,020	8,950	-3,257	14,652	-34,432	-21,978
3541369,202	1,198	8,802	-2,990	14,652	-34,432	-21,978
3541374,084	2,762	11,337	-1,287	14,652	-34,432	-21,978
3541378,967	2,861	10,327	-2,891	14,652	-34,432	-21,978
3541383,850	3,376	10,347	-3,059	14,652	-34,432	-21,978
3541388,733	1,851	10,416	-3,772	14,652	-34,432	-21,978
3541393,616	0,970	9,465	-3,624	14,652	-34,432	-21,978
3541398,499	-0,297	10,040	-4,446	14,652	-34,432	-21,978
3541403,381	-0,525	9,337	-3,287	14,652	-34,432	-21,978
3541408,264	-0,228	8,970	-3,465	14,652	-34,432	-21,978
3541413,147	0,554	8,703	-3,238	14,652	-34,432	-21,978
3541418,030	0,960	9,149	-3,208	14,652	-34,432	-21,978
3541422,913	1,802	9,495	-2,822	14,652	-34,432	-21,978
3541427,795	2,535	9,574	-2,614	14,652	-34,432	-21,978
3541432,678	2,624	9,287	-2,426	14,652	-34,432	-21,978
3541437,561	2,861	8,693	-2,248	14,652	-34,432	-21,978
3541442,444	2,832	8,129	-2,386	14,652	-34,432	-21,978
3541447,327	2,861	7,455	-2,396	14,652	-34,432	-21,978
3541452,209	2,624	7,149	-2,327	14,652	-34,432	-21,978
3541457,092	2,941	6,703	-2,267	14,652	-34,432	-21,978
3541461,975	2,901	6,059	-2,396	14,652	-34,432	-21,978
3541466,858	3,050	5,475	-2,713	14,652	-34,432	-21,978
3541471,741	2,752	5,089	-2,693	14,652	-34,432	-21,978
3541476,624	2,792	5,139	-2,644	14,652	-34,432	-21,978
3541481,506	2,921	5,297	-2,515	14,652	-34,432	-21,978
3541486,389	3,040	5,782	-2,317	14,652	-34,432	-21,978
3541491,272	3,287	6,347	-2,089	14,652	-34,432	-21,978
3541496,155	3,406	6,832	-2,000	14,652	-34,432	-21,978
3541501,038	3,317	7,594	-1,990	14,652	-34,432	-21,978
3541505,920	3,109	8,069	-1,931	14,652	-34,432	-21,978
3541510,803	3,079	8,287	-2,356	14,652	-34,432	-21,978
3541515,686	2,921	8,386	-3,000	14,652	-34,432	-21,978
3541520,569	3,079	8,119	-2,644	14,652	-34,432	-21,978
3541525,452	3,030	8,505	-2,673	14,652	-34,432	-21,978
3541530,334	2,762	9,010	-2,406	14,652	-34,432	-21,978
3541535,217	2,594	8,960	-2,307	14,652	-34,432	-21,978
3541540,100	2,307	8,822	-2,812	14,652	-34,432	-21,978
3541544,983	1,317	8,139	2,337	14,652	-34,432	-21,978
3541549,866	1,990	8,891	-3,772	14,652	-34,432	-21,978
3541554,749	2,188	8,653	-3,772	14,652	-34,432	-21,978
3541559,631	2,317	9,436	-2,267	14,652	-34,432	-21,978
3541564,514	2,554	8,752	-3,099	14,652	-34,432	-21,978
3541569,397	2,752	8,554	-3,059	14,652	-34,432	-21,978
3541574,280	2,911	8,386	-2,267	14,652	-34,432	-21,978
3541579,163	3,257	8,327	-2,129	14,652	-34,432	-21,978
3541584,045	3,208	8,495	-2,020	14,652	-34,432	-21,978
3541588,928	3,149	8,564	-1,990	14,652	-34,432	-21,978
3541593,811	3,267	8,554	-1,941	14,652	-34,432	-21,978
3541598,694	3,327	8,594	-1,624	14,652	-34,432	-21,978
3541603,577	3,059	8,495	-1,970	14,652	-34,432	-21,978
3541608,459	3,366	7,327	-0,436	14,652	-34,432	-21,978
3541613,342	0,475	8,307	-0,713	14,652	-34,432	-21,978
3541618,225	1,941	8,713	-2,455	14,652	-34,432	-21,978
3541623,108	2,079	8,257	-2,337	14,652	-34,432	-21,978
3541627,991	1,980	7,901	-2,653	14,652	-34,432	-21,978
3541632,874	1,604	8,733	-3,089	14,652	-34,432	-21,978
3541637,756	0,277	9,604	-2,158	14,652	-34,432	-21,978
3541642,639	1,792	8,495	-2,683	14,652	-34,432	-21,978
3541647,522	2,297	8,772	-6,010	14,652	-34,432	-21,978
3541652,405	2,000	7,723	-2,248	14,652	-34,432	-21,978
3541657,288	2,119	7,366	-3,455	14,652	-34,432	-21,978
3541662,170	1,921	8,356	-3,178	14,652	-34,432	-21,978
3541667,053	1,059	7,465	-2,782	14,652	-34,432	-21,978
3541671,936	1,446	8,743	-2,990	14,652	-34,432	-21,978
3541676,819	1,366	9,129	-2,812	14,652	-34,432	-21,978
3541681,702	1,861	8,960	-2,446	14,652	-34,432	-21,978
3541686,584	1,812	9,158	-2,188	14,652	-34,432	-21,978
3541691,467	1,624	8,931	-2,020	14,652	-34,432	-21,978
3541696,350	1,267	8,396	-1,723	14,652	-34,432	-21,978
3541701,233	1,851	9,089	-3,683	14,652	-34,432	-21,978
3541706,116	1,881	9,317	-2,089	14,652	-34,432	-21,978
3541710,999	1,881	9,733	1,347	14,652	-34,432	-21,978
3541715,881	0,465	7,594	-8,000	14,652	-34,432	-21,978
3541720,764	0,832	8,871	-0,426	14,652	-34,432	-21,978
3541725,647	1,198	8,376	-5,802	14,652	-34,432	-21,978
3541730,530	0,287	8,970	1,168	14,652	-34,432	-21,978
3541735,413	0,663	8,337	2,594	14,652	-34,432	-21,978
3541740,295	1,059	9,257	-2,703	14,652	-34,432	-21,978
3541745,178	1,851	8,792	-2,802	14,652	-34,432	-21,978
3541750,061	1,693	8,277	-1,871	14,652	-34,432	-21,978
3541754,944	2,139	7,822	-2,000	14,652	-34,432	-21,978
3541759,827	2,168	7,990	-1,861	14,652	-34,432	-21,978
3541764,709	2,139	8,139	-1,396	14,652	-34,432	-21,978
3541769,592	2,307	8,129	-1,634	14,652	-34,432	-21,978
3541774,475	2,337	8,139	-1,505	14,652	-34,432	-21,978
3541779,358	2,178	8,317	-1,426	14,652	-34,432	-21,978
3541784,241	2,079	8,307	-1,317	14,652	-34,432	-21,978
3541789,124	2,198	8,554	-1,515	14,652	-34,432	-21,978
3541794,006	1,802	8,495	-1,594	14,652	-34,432	-21,978
3541798,889	1,733	8,168	-1,713	14,652	-34,432	-21,978
3541803,772	2,040	7,554	-1,614	14,652	-34,432	-21,978
3541808,655	2,050	7,168	-1,822	14,652	-34,432	-21,978
3541813,538	2,208	6,950	-1,842	14,652	-34,432	-21,978
3541818,420	2,089	6,851	-1,772	14,652	-34,432	-21,978
3541823,303	2,099	6,475	-1,762	14,652	-34,432	-21,978
3541828,186	1,980	6,307	-1,970	14,652	-34,432	-21,978
3541833,069	1,832	6,158	-2,198	14,652	-34,432	-21,978
3541837,952	8,436	6,673	8,000	14,652	-34,432	-21,978
3541842,834	-1,228	4,238	11,356	14,652	-34,432	-21,978
3541847,717	4,525	6,030	6,614	14,652	-34,432	-21,978
3541852,600	-2,990	8,812	-0,733	14,652	-34,432	-21,978
3541857,483	0,525	9,119	-1,921	14,652	-34,432	-21,978
3541862,366	0,891	8,376	-1,911	14,652	-34,432	-21,978
3541867,249	1,050	8,386	-2,020	14,652	-34,432	-21,978
3541872,131	1,040	8,495	-2,277	14,652	-34,432	-21,978
3541877,014	1,436	5,089	-4,604	14,652	-34,432	-21,978
3541881,897	-2,119	7,347	-3,822	14,652	-34,432	-21,978
3541886,780	-0,267	9,960	-3,426	14,652	-34,432	-21,978
3541891,663	0,812	6,970	-3,604	14,652	-34,432	-21,978
3541896,545	0,772	5,188	-2,228	14,652	-34,432	-21,978
3541901,428	-2,485	-0,079	-6,723	14,652	-34,432	-21,978
3541906,311	0,277	1,356	-4,248	14,652	-34,432	-21,978
3541911,194	-1,168	-0,772	20,000	14,652	-34,432	-21,978
3541916,077	-1,634	8,594	-12,337	14,652	-34,432	-21,978
3541920,959	1,257	3,446	-1,970	14,652	-34,432	-21,978
3541925,842	1,792	4,208	-4,802	14,652	-34,432	-21,978
3541930,725	0,782	13,416	0,297	14,652	-34,432	-21,978
3541935,608	4,059	8,475	-0,307	14,652	-34,432	-21,978
3541940,491	3,248	5,782	-3,772	14,652	-34,432	-21,978
3541945,374	0,960	9,267	-3,604	14,652	-34,432	-21,978
3541950,256	1,416	9,139	-4,356	14,652	-34,432	-21,978
3541955,139	1,475	8,248	-3,347	14,652	-34,432	-21,978
3541960,022	0,792	8,634	-2,941	14,652	-34,432	-21,978
3541964,905	0,772	8,317	-2,644	14,652	-34,432	-21,978
3541969,788	0,545	8,396	-2,564	14,652	-34,432	-21,978
3541974,670	0,723	8,198	-2,436	14,652	-34,432	-21,978
3541979,553	0,723	8,178	-2,485	14,652	-34,432	-21,978
3541984,436	0,812	8,277	-2,614	14,652	-34,432	-21,978
3541989,319	0,713	8,475	-3,218	14,652	-34,432	-21,978
3541994,202	0,941	9,455	-3,139	14,652	-34,432	-21,978
3541999,084	0,663	8,455	-3,158	14,652	-34,432	-21,978
3542003,967	0,455	7,990	-3,218	14,652	-34,432	-21,978
3542008,850	0,455	8,515	-3,099	14,652	-34,432	-21,978
