Shimmer1	Shimmer1	Shimmer1	Shimmer1
Timestamp	Gyroscope X	Gyroscope Y	Gyroscope Z
CAL	CAL	CAL	CAL
mSecs	deg/sec	deg/sec	deg/sec
3338668,030	108,059	-32,601	-217,582
3338672,913	101,099	-31,868	-228,938
3338677,795	118,315	-30,037	-228,571
3338682,678	108,059	-21,612	-227,839
3338687,561	120,513	-25,275	-228,938
3338692,444	114,286	-19,780	-223,077
3338697,327	128,205	-14,286	-212,821
3338702,209	136,630	-10,623	-218,315
3338707,092	133,333	12,454	-204,396
3338711,975	104,029	-7,692	-211,722
3338716,858	115,018	-13,553	-206,960
3338721,741	120,879	-22,344	-194,139
3338726,624	130,769	-43,590	-150,549
3338731,506	100,733	0,366	-206,227
3338736,389	98,901	-2,198	-184,615
3338741,272	87,546	4,762	-184,249
3338746,155	67,399	5,861	-188,278
3338751,038	78,388	-4,762	-197,802
3338755,920	83,516	-4,762	-180,952
3338760,803	81,319	-16,117	-205,495
3338765,686	73,993	-21,978	-193,773
3338770,569	94,872	-28,571	-204,762
3338775,452	95,604	-27,106	-206,593
3338780,334	99,267	-35,531	-205,861
3338785,217	110,989	-34,066	-216,117
3338790,100	114,286	-35,165	-221,612
3338794,983	117,582	-39,194	-223,077
3338799,866	116,850	-37,363	-224,176
3338804,749	115,018	-42,491	-222,711
3338809,631	121,978	-43,223	-219,048
3338814,514	120,879	-49,817	-215,385
3338819,397	121,978	-46,520	-216,484
3338824,280	109,524	-40,293	-214,286
3338829,163	98,535	-30,769	-212,454
3338834,045	98,901	-34,799	-208,059
3338838,928	95,238	-26,374	-208,791
3338843,811	95,971	-24,176	-208,425
3338848,694	118,315	-30,037	-212,821
3338853,577	98,901	-19,414	-203,663
3338858,459	76,923	-15,751	-204,029
3338863,342	70,696	-9,890	-195,604
3338868,225	76,557	-21,612	-206,593
3338873,108	85,348	-19,414	-191,575
3338877,991	78,022	-17,949	-198,901
3338882,874	77,656	-13,187	-199,267
3338887,756	64,469	-16,117	-198,901
3338892,639	76,190	-15,751	-201,099
3338897,522	72,161	-6,227	-201,099
3338902,405	74,725	-9,890	-208,059
3338907,288	79,121	2,930	-214,652
3338912,170	81,319	-1,099	-208,059
3338917,053	77,656	-4,396	-210,623
3338921,936	78,388	-1,832	-209,158
3338926,819	80,220	-0,733	-210,989
3338931,702	83,883	-0,366	-208,059
3338936,584	82,418	-2,930	-207,326
3338941,467	86,081	-5,128	-209,890
3338946,350	84,982	-14,286	-209,524
3338951,233	81,685	-10,989	-212,454
3338956,116	73,993	-7,326	-215,385
3338960,999	77,656	-7,326	-223,443
3338965,881	81,685	-9,890	-213,919
3338970,764	140,659	-104,396	-203,297
3338975,647	130,403	-106,593	-191,941
3338980,530	106,593	-123,443	-182,784
3338985,413	90,842	-126,374	-171,795
3338990,295	39,927	-131,136	-184,249
3338995,178	44,322	-127,839	-171,429
3339000,061	58,608	-126,740	-173,626
3339004,944	62,271	-124,542	-168,132
3339009,827	72,161	-139,560	-149,817
3339014,709	87,546	-131,868	-142,491
3339019,592	76,923	-131,136	-165,934
3339024,475	66,667	-115,751	-184,982
3339029,358	59,341	-107,326	-201,465
3339034,241	58,608	-101,832	-212,454
3339039,124	163,370	-148,718	-267,766
3339044,006	162,637	-89,744	-240,659
3339048,889	91,575	-73,993	-270,330
3339053,772	125,275	-78,022	-259,707
3339058,655	140,293	-64,103	-246,520
3339063,538	113,919	-60,806	-241,392
3339068,420	111,355	-61,538	-224,908
3339073,303	93,773	-65,568	-215,751
3339078,186	94,139	-66,667	-210,256
3339083,069	97,436	-68,864	-198,535
3339087,952	101,099	-67,399	-195,604
3339092,834	98,901	-72,527	-181,685
3339097,717	99,634	-68,864	-176,557
3339102,600	106,960	-71,429	-183,883
3339107,483	302,198	-151,648	-241,758
3339112,366	194,872	-176,923	-152,381
3339117,249	104,396	-42,125	-198,168
3339122,131	-12,088	-38,828	-176,190
3339127,014	-21,612	-27,106	-173,260
3339131,897	18,681	-26,374	-172,527
3339136,780	70,696	-26,740	-208,059
3339141,663	70,330	-78,022	-290,842
3339146,545	88,645	-30,037	-201,099
3339151,428	99,634	-58,242	-212,821
3339156,311	112,088	-64,469	-217,216
3339161,194	127,839	-65,201	-241,392
3339166,077	160,073	-66,300	-185,348
3339170,959	95,971	-68,498	-222,711
3339175,842	109,524	-55,678	-216,484
3339180,725	101,832	-53,480	-204,762
3339185,608	87,179	-42,857	-187,179
3339190,491	77,289	-48,718	-180,586
3339195,374	84,615	-46,154	-180,586
3339200,256	87,546	-57,875	-176,923
3339205,139	96,703	-65,934	-169,597
3339210,022	100,366	-66,300	-174,359
3339214,905	89,377	-65,934	-184,615
3339219,788	98,535	-66,300	-195,971
3339224,670	105,861	-74,725	-197,070
3339229,553	115,018	-76,190	-204,029
3339234,436	113,187	-72,894	-212,454
3339239,319	109,524	-65,568	-207,326
3339244,202	96,337	-60,440	-212,088
3339249,084	104,396	-61,172	-219,414
3339253,967	106,960	-61,905	-223,810
3339258,850	108,059	-66,667	-215,018
3339263,733	109,890	-61,538	-218,315
3339268,616	102,564	-63,370	-211,355
3339273,499	103,297	-57,509	-208,791
3339278,381	106,227	-56,044	-209,158
3339283,264	95,971	-50,916	-205,861
3339288,147	93,040	-54,945	-200,733
3339293,030	52,381	-134,432	-217,582
3339297,913	50,549	-138,095	-214,286
3339302,795	53,846	-138,462	-218,681
3339307,678	49,451	-135,165	-219,048
3339312,561	55,311	-139,560	-218,315
3339317,444	48,718	-134,066	-220,879
3339322,327	49,451	-135,531	-216,117
3339327,209	45,421	-136,996	-215,751
3339332,092	48,352	-131,136	-211,355
3339336,975	48,352	-135,165	-214,286
3339341,858	50,916	-140,293	-216,850
3339346,741	45,055	-130,769	-212,821
3339351,624	41,758	-138,462	-220,879
3339356,506	47,253	-140,293	-227,473
3339361,389	42,857	-138,095	-220,879
3339366,272	44,689	-142,857	-226,374
3339371,155	52,015	-138,462	-217,582
3339376,038	46,886	-136,630	-219,780
3339380,920	56,410	-144,322	-220,879
3339385,803	45,421	-136,996	-220,513
3339390,686	46,520	-134,799	-209,524
3339395,569	49,817	-130,769	-220,513
3339400,452	49,084	-139,194	-216,850
3339405,334	55,311	-134,066	-224,176
3339410,217	52,381	-138,462	-221,978
3339415,100	46,886	-135,897	-217,216
3339419,983	52,381	-134,066	-216,850
3339424,866	51,282	-133,333	-219,780
3339429,749	45,421	-139,927	-216,850
3339434,631	52,381	-135,897	-221,245
3339439,514	67,399	-131,502	-216,850
3339444,397	48,352	-136,264	-220,147
3339449,280	40,659	-133,700	-217,216
3339454,163	37,363	-126,740	-197,802
3339459,045	58,974	-136,996	-222,711
3339463,928	47,253	-138,095	-216,117
3339468,811	50,183	-140,293	-223,443
3339473,694	48,352	-138,462	-230,037
3339478,577	54,579	-130,403	-212,821
3339483,459	49,451	-137,363	-216,117
3339488,342	47,253	-129,670	-218,315
3339493,225	45,788	-126,740	-215,385
3339498,108	46,154	-134,799	-214,286
3339502,991	43,956	-137,363	-231,502
3339507,874	45,788	-136,264	-223,443
3339512,756	47,985	-135,531	-227,106
3339517,639	41,392	-139,194	-228,205
3339522,522	47,985	-133,700	-228,938
3339527,405	51,282	-136,264	-227,839
3339532,288	42,125	-144,689	-230,403
3339537,170	49,451	-137,363	-223,077
3339542,053	52,747	-138,462	-222,711
3339546,936	38,095	-130,769	-219,780
3339551,819	50,549	-134,066	-222,711
3339556,702	48,352	-134,432	-219,780
3339561,584	53,846	-132,234	-222,344
3339566,467	51,282	-129,304	-219,048
3339571,350	50,916	-134,066	-226,374
3339576,233	50,183	-132,601	-222,344
3339581,116	48,352	-131,502	-230,769
3339585,999	52,747	-126,740	-230,769
3339590,881	47,985	-135,165	-235,531
3339595,764	50,183	-132,234	-237,363
3339600,647	55,678	-131,136	-248,352
3339605,530	56,777	-131,868	-248,352
3339610,413	53,846	-133,700	-247,619
3339615,295	59,341	-140,659	-258,974
3339620,178	70,696	-144,689	-269,963
3339625,061	94,139	-123,443	-286,447
3339629,944	75,458	-162,271	-289,011
3339634,827	48,352	-150,549	-269,963
3339639,709	57,509	-135,165	-277,289
3339644,592	42,857	-120,147	-280,220
3339649,475	51,648	-139,560	-305,495
3339654,358	40,659	-163,004	-336,264
3339659,241	53,114	-144,322	-281,319
3339664,124	48,352	-130,037	-250,183
3339669,006	39,194	-112,821	-231,868
3339673,889	1,099	-11,722	-226,007
3339678,772	9,524	-50,916	-189,377
3339683,655	20,879	-69,231	-193,040
3339688,538	34,066	-80,586	-202,198
3339693,420	45,055	-89,011	-206,960
3339698,303	65,568	-87,179	-213,919
3339703,186	72,894	-80,220	-223,077
3339708,069	70,696	-17,582	-270,330
3339712,952	53,846	-55,678	-243,590
3339717,834	44,689	-31,136	-255,678
3339722,717	42,857	-46,520	-267,033
3339727,600	59,707	-48,718	-268,864
3339732,483	70,696	-43,590	-254,212
3339737,366	73,993	-47,985	-245,788
3339742,249	69,597	-41,026	-230,037
3339747,131	61,905	-40,659	-220,513
3339752,014	63,004	-37,363	-204,762
3339756,897	65,934	-19,780	-198,168
3339761,780	65,568	31,868	-80,220
3339766,663	35,165	-32,601	-107,326
3339771,545	57,509	-67,033	-134,799
3339776,428	63,736	-65,934	-156,777
3339781,311	61,172	-32,234	-184,982
3339786,194	64,835	-25,275	-193,040
3339791,077	58,242	-23,077	-197,070
3339795,959	84,615	-40,293	-194,505
3339800,842	85,714	-27,839	-190,842
3339805,725	92,674	-15,385	-200,366
3339810,608	92,308	-19,414	-208,791
3339815,491	96,703	-18,681	-217,949
3339820,374	96,703	-15,751	-217,949
3339825,256	104,762	-8,059	-233,700
3339830,139	99,634	-9,524	-235,531
3339835,022	93,773	-0,733	-219,780
3339839,905	91,941	-8,425	-196,703
3339844,788	91,941	-28,571	-190,476
3339849,670	94,505	-36,630	-195,238
3339854,553	109,158	-32,601	-198,168
3339859,436	117,582	-30,769	-199,634
3339864,319	129,304	-26,374	-202,198
3339869,202	101,832	-32,967	72,527
3339874,084	124,542	-83,150	-193,040
3339878,967	132,967	-84,615	-263,370
3339883,850	124,542	-50,549	-255,311
3339888,733	117,582	-39,560	-217,949
3339893,616	109,158	-41,026	-186,447
3339898,499	109,158	-13,553	-190,842
3339903,381	126,007	-61,172	-208,059
3339908,264	154,945	-11,722	-253,846
3339913,147	173,993	-20,147	-289,011
3339918,030	198,901	-23,443	-294,872
3339922,913	198,168	-20,513	-303,663
3339927,795	200,000	-10,256	-291,209
3339932,678	193,773	-24,908	-276,190
3339937,561	195,971	-17,582	-249,451
3339942,444	168,864	-50,916	-233,700
3339947,327	170,696	-27,839	-212,454
3339952,209	151,282	-32,601	-200,366
3339957,092	138,828	-28,571	-188,278
3339961,975	144,689	-37,363	-163,736
3339966,858	143,223	-34,799	-167,033
3339971,741	147,253	-39,927	-178,755
3339976,624	147,619	-30,769	-173,626
3339981,506	156,410	-25,641	-187,912
3339986,389	167,399	-23,443	-209,158
3339991,272	173,993	-18,681	-216,117
3339996,155	189,011	-15,018	-224,542
3340001,038	198,535	-2,930	-223,810
3340005,920	193,040	-7,692	-245,788
3340010,803	194,505	-5,861	-255,678
3340015,686	182,784	-7,326	-257,509
3340020,569	164,469	-12,088	-252,015
3340025,452	150,916	-13,187	-240,659
3340030,334	142,125	-18,681	-233,700
3340035,217	133,333	-20,879	-235,531
3340040,100	127,839	-24,176	-227,473
3340044,983	127,839	-23,443	-232,601
3340049,866	131,136	-29,304	-219,414
3340054,749	129,670	-36,996	-201,465
3340059,631	131,502	-44,689	-208,059
3340064,514	127,106	-39,927	-223,443
3340069,397	119,780	-36,630	-233,700
3340074,280	122,711	-30,769	-237,363
3340079,163	123,810	-32,234	-232,967
3340084,045	130,037	-39,927	-218,681
3340088,928	127,106	-52,747	-206,960
3340093,811	119,780	-56,044	-201,465
3340098,694	123,810	-53,480	-204,396
3340103,577	128,571	-50,183	-204,762
3340108,459	136,630	-49,817	-203,297
3340113,342	148,352	-47,985	-196,703
3340118,225	152,381	-41,758	-207,326
3340123,108	152,381	-30,769	-220,879
3340127,991	150,916	-24,908	-235,165
3340132,874	144,689	-34,432	-250,916
3340137,756	139,194	-38,462	-247,985
3340142,639	138,462	-41,392	-240,293
3340147,522	141,392	-45,055	-220,513
3340152,405	134,066	-46,886	-215,751
3340157,288	123,810	-49,817	-224,542
3340162,170	102,930	-56,410	-226,007
3340167,053	86,813	-65,568	-219,048
3340171,936	76,190	-69,597	-216,117
3340176,819	74,359	-67,033	-211,355
3340181,702	84,982	-69,963	-202,564
3340186,584	92,674	-68,864	-200,733
3340191,467	102,930	-69,231	-205,495
3340196,350	96,703	-69,597	-216,850
3340201,233	99,634	-61,905	-219,780
3340206,116	100,366	-58,974	-212,088
3340210,999	107,326	-57,509	-212,821
3340215,881	118,681	-49,817	-221,612
3340220,764	127,839	-43,223	-221,245
3340225,647	127,839	-42,125	-210,623
3340230,530	126,374	-43,956	-201,465
3340235,413	118,681	-40,659	-197,436
3340240,295	109,890	-43,223	-209,158
3340245,178	93,773	-54,945	-210,623
3340250,061	87,179	-58,608	-195,238
3340254,944	90,110	-55,678	-182,418
3340259,827	84,982	-55,311	-172,161
3340264,709	83,150	-57,875	-178,388
3340269,592	83,516	-61,172	-190,110
3340274,475	72,161	-64,835	-198,535
3340279,358	65,934	-63,736	-200,733
3340284,241	66,667	-67,399	-199,634
3340289,124	65,934	-68,498	-190,476
3340294,006	65,934	-62,271	-190,476
3340298,889	65,934	-70,330	-184,982
3340303,772	69,963	-73,260	-180,952
3340308,655	69,963	-61,172	-173,993
3340313,538	75,092	-60,806	-177,289
3340318,420	75,092	-57,509	-175,092
3340323,303	84,615	-58,974	-179,853
3340328,186	78,388	-63,736	-178,388
3340333,069	86,447	-61,905	-178,022
3340337,952	93,773	-60,440	-168,864
3340342,834	93,773	-54,212	-161,905
3340347,717	92,308	-49,451	-161,538
3340352,600	101,465	-47,253	-164,103
3340357,483	99,267	-42,857	-160,806
3340362,366	102,930	-45,788	-168,132
3340367,249	93,773	-52,015	-156,777
3340372,131	91,941	-52,015	-163,370
3340377,014	83,516	-56,777	-167,766
3340381,897	75,824	-63,004	-168,498
3340386,780	80,952	-73,260	-167,399
3340391,663	74,725	-78,022	-172,894
3340396,545	72,894	-78,388	-168,864
3340401,428	78,022	-86,081	-165,201
3340406,311	77,289	-86,813	-156,044
3340411,194	80,586	-88,278	-152,747
3340416,077	82,051	-89,011	-162,637
3340420,959	88,645	-90,476	-160,073
3340425,842	85,348	-93,040	-149,084
3340430,725	89,744	-91,575	-147,253
3340435,608	91,209	-92,674	-150,916
3340440,491	84,982	-88,278	-158,608
3340445,374	98,901	-78,388	-157,509
3340450,256	113,187	-69,963	-154,945
3340455,139	111,355	-67,766	-152,381
3340460,022	110,256	-60,440	-152,747
3340464,905	115,751	-60,806	-152,747
3340469,788	115,751	-62,271	-162,637
3340474,670	105,861	-65,934	-168,132
3340479,553	108,059	-69,963	-173,260
3340484,436	110,989	-66,300	-158,242
3340489,319	112,088	-75,824	-145,421
3340494,202	110,989	-75,092	-140,659
3340499,084	110,989	-82,784	-130,403
3340503,967	115,385	-90,842	-131,868
3340508,850	107,692	-93,773	-141,758
3340513,733	109,158	-93,040	-132,967
3340518,616	110,623	-98,535	-126,374
3340523,499	104,029	-97,802	-124,542
3340528,381	111,355	-93,773	-126,740
3340533,264	110,256	-94,872	-139,560
3340538,147	110,623	-89,377	-139,927
3340543,030	114,286	-89,011	-143,223
3340547,913	108,059	-89,377	-152,747
3340552,795	134,066	-82,051	-164,103
3340557,678	122,344	-73,260	-161,905
3340562,561	137,363	-61,905	-163,004
3340567,444	141,392	-38,095	-167,033
3340572,327	147,619	-29,304	-163,370
3340577,209	150,183	-19,048	-142,857
3340582,092	167,766	-20,879	-129,670
3340586,975	160,073	-23,443	-122,344
3340591,858	152,381	-29,670	-135,897
3340596,741	130,403	-42,125	-148,718
3340601,624	123,810	-45,788	-145,421
3340606,506	133,700	-47,985	-142,491
3340611,389	136,996	-45,788	-148,718
3340616,272	136,996	-37,729	-145,421
3340621,155	130,403	-33,700	-141,392
3340626,038	141,758	-18,681	-120,147
3340630,920	155,678	-8,791	-107,692
3340635,803	167,033	-4,029	-97,070
3340640,686	173,626	-8,791	-96,703
3340645,569	166,300	-4,396	-120,147
3340650,452	150,549	-8,425	-146,154
3340655,334	143,956	-10,623	-160,806
3340660,217	144,322	-9,890	-157,875
3340665,100	144,322	-12,088	-155,678
3340669,983	145,788	-14,286	-161,538
3340674,866	141,026	-17,949	-159,707
3340679,749	142,125	-15,018	-171,795
3340684,631	133,333	-17,582	-180,586
3340689,514	131,136	-22,344	-178,022
3340694,397	130,769	-26,374	-170,330
3340699,280	129,304	-27,839	-169,597
3340704,163	134,799	-35,897	-167,033
3340709,045	133,700	-41,026	-172,527
3340713,928	137,363	-34,432	-170,330
3340718,811	138,462	-38,828	-176,923
3340723,694	132,967	-37,729	-185,714
3340728,577	138,095	-39,927	-190,110
3340733,459	138,828	-38,828	-184,982
3340738,342	151,282	-29,670	-184,615
3340743,225	152,381	-23,443	-182,051
3340748,108	147,619	-19,414	-174,359
3340752,991	149,084	-17,949	-178,022
3340757,874	149,451	-22,711	-170,330
3340762,756	157,509	-14,286	-158,974
3340767,639	158,974	-15,385	-161,905
3340772,522	159,707	-13,187	-164,469
3340777,405	165,568	-8,425	-160,440
3340782,288	165,934	-6,593	-163,370
3340787,170	160,073	-11,722	-158,608
3340792,053	164,469	-5,495	-161,172
3340796,936	167,766	-0,366	-160,073
3340801,819	163,004	-2,198	-143,590
3340806,702	169,597	-4,762	-143,223
3340811,584	162,271	-5,128	-150,916
3340816,467	158,242	-9,890	-150,183
3340821,350	157,509	-10,623	-147,985
3340826,233	156,044	-12,088	-140,293
3340831,116	154,945	-10,623	-151,282
3340835,999	145,055	-0,366	-162,637
3340840,881	152,015	-0,366	-159,341
3340845,764	153,846	5,128	-152,381
3340850,647	166,667	16,117	-163,736
3340855,530	160,073	20,147	-160,440
3340860,413	160,073	10,256	-161,538
3340865,295	155,311	5,495	-159,707
3340870,178	150,549	1,099	-156,044
3340875,061	154,579	-3,663	-159,341
3340879,944	153,480	-2,564	-162,271
3340884,827	151,282	-8,425	-172,527
3340889,709	148,718	-6,227	-165,201
3340894,592	150,183	-4,396	-165,568
3340899,475	146,154	-11,722	-163,370
3340904,358	140,293	-11,722	-168,498
3340909,241	145,421	-12,454	-169,597
3340914,124	141,392	-15,385	-161,172
3340919,006	141,392	-16,484	-152,747
3340923,889	146,520	-13,553	-153,846
3340928,772	141,758	-12,821	-152,381
3340933,655	141,392	-1,099	-152,381
3340938,538	137,729	0,733	-153,114
3340943,420	141,392	-1,832	-151,282
3340948,303	139,194	3,297	-153,114
3340953,186	135,165	-3,297	-167,766
3340958,069	137,363	0,733	-168,132
3340962,952	138,095	4,762	-164,469
3340967,834	143,590	4,029	-147,253
3340972,717	148,718	11,355	-144,689
3340977,600	147,985	11,722	-139,194
3340982,483	145,421	13,187	-138,462
3340987,366	140,293	10,989	-136,996
3340992,249	138,462	13,187	-147,253
3340997,131	138,462	3,297	-157,143
3341002,014	134,799	0,000	-167,766
3341006,897	133,333	-8,059	-164,103
3341011,780	125,641	-13,553	-166,300
3341016,663	129,304	-11,355	-179,853
3341021,545	124,542	-17,949	-182,784
3341026,428	121,245	-13,553	-193,773
3341031,311	126,374	-14,652	-194,872
3341036,194	132,234	-11,722	-182,784
3341041,077	135,897	-12,088	-170,696
3341045,959	136,264	-9,524	-159,707
3341050,842	135,531	-10,989	-159,707
3341055,725	138,095	-12,454	-165,934
3341060,608	145,788	-7,326	-159,707
3341065,491	142,125	-2,564	-152,747
3341070,374	138,828	-12,088	-149,084
3341075,256	133,700	-14,286	-159,707
3341080,139	116,850	-14,286	-173,993
3341085,022	125,641	-17,949	-173,260
3341089,905	119,414	-15,385	-178,388
3341094,788	120,147	-12,821	-176,557
3341099,670	124,542	-16,117	-174,359
3341104,553	124,908	-19,414	-182,051
3341109,436	118,681	-17,582	-183,516
3341114,319	114,652	-18,315	-191,209
3341119,202	120,147	-14,286	-196,337
3341124,084	115,385	-6,593	-203,297
3341128,967	118,315	-8,059	-202,564
3341133,850	128,205	-8,425	-200,733
3341138,733	123,810	-6,960	-199,634
3341143,616	114,286	-11,355	-199,267
3341148,499	117,949	-17,949	-198,168
3341153,381	115,385	-13,553	-187,546
3341158,264	123,443	-23,443	-185,714
3341163,147	116,484	-33,333	-197,070
3341168,030	119,780	-32,601	-192,308
3341172,913	130,769	-26,374	-190,842
3341177,795	120,513	-31,868	-191,575
3341182,678	133,700	-23,443	-183,516
3341187,561	134,799	-17,582	-184,982
3341192,444	136,264	-1,832	-183,150
3341197,327	130,769	-8,425	-186,813
3341202,209	128,205	-6,227	-189,377
3341207,092	133,333	-10,256	-195,604
3341211,975	130,403	-5,128	-187,912
3341216,858	128,571	-3,297	-179,487
3341221,741	128,938	1,832	-174,725
3341226,624	118,681	-2,198	-186,081
3341231,506	120,513	-4,029	-197,802
3341236,389	123,077	-6,960	-198,901
3341241,272	130,403	-8,059	-202,564
3341246,155	125,641	-3,663	-205,128
3341251,038	127,106	-1,099	-199,267
3341255,920	133,333	-0,366	-203,297
3341260,803	136,264	-0,733	-200,733
3341265,686	131,502	-9,158	-204,029
3341270,569	131,868	-3,663	-205,128
3341275,452	131,868	-1,099	-200,000
3341280,334	129,670	-8,059	-196,337
3341285,217	135,531	-1,465	-186,081
3341290,100	146,520	8,059	-173,626
3341294,983	153,480	10,256	-168,864
3341299,866	149,084	17,949	-167,033
3341304,749	146,886	21,245	-173,993
3341309,631	140,659	20,147	-178,022
3341314,514	145,788	24,176	-176,557
3341319,397	141,758	26,740	-183,150
3341324,280	135,165	22,344	-185,714
3341329,163	136,630	21,978	-190,476
3341334,045	140,659	21,245	-187,546
3341338,928	142,491	26,007	-186,081
3341343,811	145,055	24,908	-179,487
3341348,694	148,352	28,938	-184,615
3341353,577	141,392	23,077	-180,220
3341358,459	145,788	25,641	-176,557
3341363,342	142,491	18,681	-178,388
3341368,225	136,996	13,553	-175,092
3341373,108	140,293	17,949	-174,725
3341377,991	137,729	10,989	-176,190
3341382,874	137,363	9,158	-182,418
3341387,756	133,700	4,762	-190,110
3341392,639	133,333	10,623	-190,476
3341397,522	134,432	12,454	-187,912
3341402,405	130,403	13,919	-189,377
3341407,288	131,502	13,919	-180,220
3341412,170	137,729	15,751	-175,824
3341417,053	139,194	16,850	-172,894
3341421,936	138,095	10,256	-169,963
3341426,819	142,857	10,989	-171,062
3341431,702	137,729	8,791	-175,824
3341436,584	136,630	16,850	-180,586
3341441,467	141,026	18,681	-188,278
3341446,350	138,095	15,751	-195,238
3341451,233	139,560	27,839	-186,081
3341456,116	144,689	24,176	-177,289
3341460,999	149,451	28,205	-171,429
3341465,881	144,689	36,264	-163,736
3341470,764	148,718	29,670	-167,399
3341475,647	144,689	39,194	-173,260
3341480,530	155,311	38,828	-175,092
3341485,413	147,253	38,462	-168,864
3341490,295	149,451	39,927	-173,993
3341495,178	154,945	38,828	-171,429
3341500,061	146,154	33,700	-174,725
3341504,944	143,956	29,304	-170,696
3341509,827	141,026	27,839	-157,143
3341514,709	141,758	20,147	-156,044
3341519,592	146,154	17,949	-153,480
3341524,475	140,293	11,722	-156,044
3341529,358	138,462	10,989	-165,201
3341534,241	129,304	-0,366	-167,033
3341539,124	136,996	7,692	-161,905
3341544,006	134,799	7,326	-167,766
3341548,889	134,066	12,088	-169,597
3341553,772	131,868	13,553	-176,557
3341558,655	132,601	11,722	-184,982
3341563,538	126,374	11,355	-190,476
3341568,420	132,234	20,879	-187,179
3341573,303	134,432	21,978	-175,824
3341578,186	142,491	26,374	-171,062
3341583,069	143,956	26,374	-173,626
3341587,952	145,788	33,333	-175,092
3341592,834	149,451	42,491	-170,696
3341597,717	149,084	45,421	-166,300
3341602,600	149,451	40,659	-163,736
3341607,483	147,619	34,432	-155,678
3341612,366	149,817	31,136	-154,212
3341617,249	143,590	29,304	-156,044
3341622,131	143,956	28,571	-157,509
3341627,014	146,154	23,810	-162,271
3341631,897	144,689	14,286	-164,469
3341636,780	140,659	18,681	-167,399
3341641,663	136,996	10,989	-163,004
3341646,545	131,136	12,088	-171,429
3341651,428	123,443	7,326	-178,755
3341656,311	130,037	11,355	-186,081
3341661,194	130,037	10,256	-196,703
3341666,077	131,502	12,821	-188,645
3341670,959	136,264	22,711	-179,487
3341675,842	144,322	15,751	-165,201
3341680,725	142,491	24,176	-168,132
3341685,608	146,520	24,176	-155,311
3341690,491	139,927	22,344	-155,678
3341695,374	144,322	20,513	-162,637
3341700,256	149,451	17,582	-160,073
3341705,139	142,491	16,117	-151,282
3341710,022	141,758	9,890	-158,608
3341714,905	140,293	12,821	-156,777
3341719,788	140,293	11,722	-162,271
3341724,670	132,601	20,879	-169,963
3341729,553	136,996	13,919	-173,626
3341734,436	138,095	28,938	-179,121
3341739,319	140,659	33,333	-173,626
3341744,202	142,857	38,462	-173,260
3341749,084	147,253	38,095	-167,766
3341753,967	147,619	32,601	-165,201
3341758,850	146,520	32,967	-154,579
3341763,733	139,927	29,670	-158,974
3341768,616	142,491	25,275	-156,410
3341773,499	134,066	16,850	-168,132
3341778,381	138,095	8,791	-168,132
3341783,264	131,502	0,366	-175,092
3341788,147	129,304	6,960	-157,143
3341793,030	142,125	1,465	-151,282
3341797,913	142,491	10,623	-153,846
3341802,795	134,799	6,593	-161,538
3341807,678	131,868	14,652	-159,341
3341812,561	130,037	2,198	-174,359
3341817,444	155,311	17,216	-171,429
3341822,327	154,579	26,007	-158,974
3341827,209	151,648	23,810	-166,300
3341832,092	141,026	47,985	-165,568
3341836,975	134,799	23,077	-159,707
3341841,858	136,630	26,740	-164,103
3341846,741	137,363	23,443	-168,864
3341851,624	141,026	31,502	-174,359
3341856,506	143,223	32,601	-167,033
3341861,389	138,462	29,304	-165,934
3341866,272	146,154	33,333	-170,696
3341871,155	139,927	27,473	-168,864
3341876,038	136,264	27,473	-168,498
3341880,920	157,143	29,670	-166,300
3341885,803	140,293	21,612	-165,568
3341890,686	143,223	19,414	-167,399
3341895,569	146,154	26,007	-160,073
3341900,452	142,491	23,443	-157,143
3341905,334	147,619	19,780	-155,311
3341910,217	151,648	31,868	-160,440
3341915,100	158,242	39,194	-148,718
3341919,983	157,875	45,788	-144,689
3341924,866	161,905	38,828	-146,520
3341929,749	153,846	44,322	-143,223
3341934,631	158,974	32,601	-160,806
3341939,514	163,736	21,245	-159,341
3341944,397	168,864	11,355	-160,073
3341949,280	170,330	17,582	-155,678
3341954,163	169,597	21,245	-151,648
3341959,045	170,696	25,275	-155,311
3341963,928	185,348	17,582	-142,491
3341968,811	192,674	8,425	-143,956
3341973,694	184,615	15,385	-121,245
3341978,577	169,963	19,414	-106,960
3341983,459	165,568	33,700	-105,861
3341988,342	162,271	43,223	-115,018
3341993,225	167,033	41,392	-146,886
3341998,108	82,418	87,546	-200,366
3342002,991	154,945	7,326	-215,018
3342007,874	165,568	-17,216	-164,103
3342012,756	153,846	-19,048	-124,542
3342017,639	149,084	-17,582	-95,604
3342022,522	152,381	-16,484	-92,674
3342027,405	148,718	-12,454	-93,773
3342032,288	153,846	-8,425	-80,586
3342037,170	167,399	7,692	-75,092
3342042,053	180,952	24,542	-70,330
3342046,936	195,971	25,641	-73,626
3342051,819	194,505	28,938	-86,081
3342056,702	195,604	36,630	-74,725
3342061,584	203,663	33,333	-37,729
3342066,467	220,879	22,344	-8,791
3342071,350	231,868	20,513	16,117
3342076,233	247,619	10,256	44,689
3342081,116	257,509	-15,018	48,352
3342085,999	255,311	-29,670	67,399
3342090,881	247,619	-47,619	82,418
3342095,764	258,242	-42,491	90,110
3342100,647	270,696	-43,223	107,692
3342105,530	286,447	-46,154	110,256
3342110,413	294,505	-38,095	99,267
3342115,295	303,663	-38,095	86,081
3342120,178	300,000	-37,363	77,289
3342125,061	275,458	-45,421	66,300
3342129,944	261,905	-54,945	74,725
3342134,827	253,846	-64,469	71,062
3342139,709	248,718	-57,875	60,073
3342144,592	200,366	-28,571	35,165
3342149,475	205,861	-8,059	-14,286
3342154,358	203,663	-69,597	12,821
3342159,241	184,249	-112,454	61,172
3342164,124	165,568	-134,066	60,440
3342169,006	153,480	-130,769	60,440
3342173,889	162,271	-131,502	69,231
3342178,772	161,172	-148,352	81,319
3342183,655	169,963	-167,033	102,564
3342188,538	186,813	-157,509	128,205
3342193,420	194,872	-149,817	145,055
3342198,303	194,505	-130,403	142,491
3342203,186	187,546	-115,751	134,799
3342208,069	194,139	-125,641	136,630
3342212,952	223,810	-132,234	137,729
3342217,834	256,410	-134,066	156,410
3342222,717	282,784	-131,868	152,747
3342227,600	279,853	-100,366	143,590
3342232,483	308,425	-148,718	118,315
3342237,366	305,128	-87,546	54,212
3342242,249	315,018	-120,147	38,462
3342247,131	284,615	-98,901	62,637
3342252,014	272,161	-83,883	84,615
3342256,897	256,777	-83,150	104,762
3342261,780	246,520	-63,370	116,117
3342266,663	221,978	-39,927	152,747
3342271,545	247,253	-58,608	164,103
3342276,428	264,469	-39,194	161,172
3342281,311	313,919	-30,403	115,385
3342286,194	354,212	-25,275	2,930
3342291,077	353,846	-6,960	-46,154
3342295,959	330,037	-4,396	-40,659
3342300,842	320,147	2,930	-26,740
3342305,725	288,278	-4,762	13,919
3342310,608	289,744	-21,245	27,106
3342315,491	288,645	-33,333	38,095
3342320,374	289,744	-46,154	57,875
3342325,256	280,952	-50,183	56,044
3342330,139	273,993	-52,747	68,132
3342335,022	268,132	-53,846	80,952
3342339,905	266,667	-58,974	80,586
3342344,788	255,311	-66,300	72,527
3342349,670	248,718	-75,824	64,835
3342354,553	238,095	-72,527	58,974
3342359,436	232,601	-72,527	50,183
3342364,319	239,194	-63,736	21,978
3342369,202	260,440	-45,055	10,623
3342374,084	285,348	-25,275	3,297
3342378,967	312,821	-1,099	-1,099
3342383,850	335,165	14,652	-17,949
3342388,733	358,974	33,700	-23,443
3342393,616	369,963	43,223	-19,048
3342398,499	354,212	37,363	-24,176
3342403,381	332,234	30,037	-16,117
3342408,264	305,861	29,670	-5,861
3342413,147	293,773	20,513	7,326
