Shimmer 1	Shimmer 1	Shimmer 1	Shimmer 1	Shimmer 1	Shimmer 1	Shimmer 1	Shimmer 1
Timestamp	Gyroscope X	Gyroscope Y	Gyroscope Z	Timestamp	Gyroscope X	Gyroscope Y	Gyroscope Z
RAW	RAW	RAW	RAW	CAL	CAL	CAL	CAL
No unit	No unit	No unit	No unit	mSecs	deg/sec*	deg/sec*	deg/sec*
56289	1402	1600	22	1717,80395507813	89,010989010989	161,538461538462	667,032967032967
56449	1612	2088	137	1722,68676757813	-89,7435897435898	84,6153846153846	624,908424908425
56609	1632	2039	2027	1727,56958007813	-71,7948717948718	77,2893772893773	-67,3992673992674
56769	1619	2119	1834	1732,45239257813	-101,098901098901	82,0512820512821	3,2967032967033
56929	1696	1954	1854	1737,33520507813	-40,6593406593407	53,8461538461539	-4,02930402930403
57089	1624	2003	1849	1742,21801757813	-58,6080586080586	80,2197802197802	-2,1978021978022
57249	1527	2080	1846	1747,10083007813	-86,8131868131868	115,750915750916	-1,0989010989011
57409	1696	1952	1849	1751,98364257813	-39,9267399267399	53,8461538461539	-2,1978021978022
57569	1892	1792	1854	1756,86645507813	18,6813186813187	-17,9487179487179	-4,02930402930403
57729	1862	1811	1856	1761,74926757813	11,7216117216117	-6,95970695970696	-4,76190476190476
57889	1846	1824	1857	1766,63208007813	6,95970695970696	-1,0989010989011	-5,12820512820513
58049	1843	1835	1856	1771,51489257813	2,93040293040293	0	-4,76190476190476
58209	1843	1837	1858	1776,39770507813	2,1978021978022	0	-5,49450549450549
58369	1851	1839	1860	1781,28051757813	1,46520146520147	-2,93040293040293	-6,22710622710623
58529	1856	1835	1859	1786,16333007813	2,93040293040293	-4,76190476190476	-5,86080586080586
58689	1857	1831	1860	1791,04614257813	4,3956043956044	-5,12820512820513	-6,22710622710623
58849	1857	1827	1856	1795,92895507813	5,86080586080586	-5,12820512820513	-4,76190476190476
59009	1856	1827	1857	1800,81176757813	5,86080586080586	-4,76190476190476	-5,12820512820513
59169	1858	1830	1859	1805,69458007813	4,76190476190476	-5,49450549450549	-5,86080586080586
59329	1856	1829	1861	1810,57739257813	5,12820512820513	-4,76190476190476	-6,59340659340659
59489	1854	1830	1857	1815,46020507813	4,76190476190476	-4,02930402930403	-5,12820512820513
59649	1855	1831	1858	1820,34301757813	4,3956043956044	-4,3956043956044	-5,49450549450549
59809	1853	1829	1858	1825,22583007813	5,12820512820513	-3,66300366300366	-5,49450549450549
59969	1855	1828	1858	1830,10864257813	5,49450549450549	-4,3956043956044	-5,49450549450549
60129	1856	1831	1859	1834,99145507813	4,3956043956044	-4,76190476190476	-5,86080586080586
60289	1856	1830	1859	1839,87426757813	4,76190476190476	-4,76190476190476	-5,86080586080586
60449	1855	1829	1858	1844,75708007813	5,12820512820513	-4,3956043956044	-5,49450549450549
60609	1856	1830	1856	1849,63989257813	4,76190476190476	-4,76190476190476	-4,76190476190476
60769	1854	1829	1857	1854,52270507813	5,12820512820513	-4,02930402930403	-5,12820512820513
60929	1856	1829	1858	1859,40551757813	5,12820512820513	-4,76190476190476	-5,49450549450549
61089	1855	1829	1858	1864,28833007813	5,12820512820513	-4,3956043956044	-5,49450549450549
61249	1856	1830	1859	1869,17114257813	4,76190476190476	-4,76190476190476	-5,86080586080586
61409	1856	1830	1859	1874,05395507813	4,76190476190476	-4,76190476190476	-5,86080586080586
61569	1855	1829	1859	1878,93676757813	5,12820512820513	-4,3956043956044	-5,86080586080586
61729	1857	1830	1859	1883,81958007813	4,76190476190476	-5,12820512820513	-5,86080586080586
61889	1856	1831	1860	1888,70239257813	4,3956043956044	-4,76190476190476	-6,22710622710623
62049	1856	1830	1859	1893,58520507813	4,76190476190476	-4,76190476190476	-5,86080586080586
62209	1855	1829	1858	1898,46801757813	5,12820512820513	-4,3956043956044	-5,49450549450549
62369	1855	1828	1857	1903,35083007813	5,49450549450549	-4,3956043956044	-5,12820512820513
62529	1855	1829	1858	1908,23364257813	5,12820512820513	-4,3956043956044	-5,49450549450549
62689	1856	1829	1857	1913,11645507813	5,12820512820513	-4,76190476190476	-5,12820512820513
62849	1856	1830	1860	1917,99926757813	4,76190476190476	-4,76190476190476	-6,22710622710623
63009	1856	1829	1859	1922,88208007813	5,12820512820513	-4,76190476190476	-5,86080586080586
63169	1856	1830	1858	1927,76489257813	4,76190476190476	-4,76190476190476	-5,49450549450549
63329	1856	1828	1858	1932,64770507813	5,49450549450549	-4,76190476190476	-5,49450549450549
63489	1856	1831	1859	1937,53051757813	4,3956043956044	-4,76190476190476	-5,86080586080586
63649	1858	1831	1859	1942,41333007813	4,3956043956044	-5,49450549450549	-5,86080586080586
63809	1855	1829	1859	1947,29614257813	5,12820512820513	-4,3956043956044	-5,86080586080586
63969	1855	1828	1857	1952,17895507813	5,49450549450549	-4,3956043956044	-5,12820512820513
64129	1858	1831	1861	1957,06176757813	4,3956043956044	-5,49450549450549	-6,59340659340659
64289	1857	1831	1861	1961,94458007813	4,3956043956044	-5,12820512820513	-6,59340659340659
64449	1857	1830	1861	1966,82739257813	4,76190476190476	-5,12820512820513	-6,59340659340659
64609	1856	1828	1858	1971,71020507813	5,49450549450549	-4,76190476190476	-5,49450549450549
64769	1856	1829	1860	1976,59301757813	5,12820512820513	-4,76190476190476	-6,22710622710623
64929	1856	1829	1858	1981,47583007813	5,12820512820513	-4,76190476190476	-5,49450549450549
65089	1856	1828	1859	1986,35864257813	5,49450549450549	-4,76190476190476	-5,86080586080586
65249	1857	1831	1860	1991,24145507813	4,3956043956044	-5,12820512820513	-6,22710622710623
65409	1856	1830	1859	1996,12426757813	4,76190476190476	-4,76190476190476	-5,86080586080586
33	1858	1830	1857	2001,00708007813	4,76190476190476	-5,49450549450549	-5,12820512820513
193	1856	1830	1857	2005,88989257813	4,76190476190476	-4,76190476190476	-5,12820512820513
353	1855	1829	1858	2010,77270507813	5,12820512820513	-4,3956043956044	-5,49450549450549
513	1855	1828	1858	2015,65551757813	5,49450549450549	-4,3956043956044	-5,49450549450549
673	1856	1829	1858	2020,53833007813	5,12820512820513	-4,76190476190476	-5,49450549450549
833	1856	1829	1858	2025,42114257813	5,12820512820513	-4,76190476190476	-5,49450549450549
993	1857	1830	1858	2030,30395507813	4,76190476190476	-5,12820512820513	-5,49450549450549
1153	1855	1828	1860	2035,18676757813	5,49450549450549	-4,3956043956044	-6,22710622710623
1313	1857	1830	1860	2040,06958007813	4,76190476190476	-5,12820512820513	-6,22710622710623
1473	1857	1830	1860	2044,95239257813	4,76190476190476	-5,12820512820513	-6,22710622710623
1633	1856	1829	1859	2049,83520507813	5,12820512820513	-4,76190476190476	-5,86080586080586
1793	1856	1828	1858	2054,71801757813	5,49450549450549	-4,76190476190476	-5,49450549450549
1953	1855	1829	1858	2059,60083007813	5,12820512820513	-4,3956043956044	-5,49450549450549
2113	1855	1829	1858	2064,48364257813	5,12820512820513	-4,3956043956044	-5,49450549450549
2273	1855	1828	1858	2069,36645507813	5,49450549450549	-4,3956043956044	-5,49450549450549
2433	1856	1830	1860	2074,24926757813	4,76190476190476	-4,76190476190476	-6,22710622710623
2593	1856	1829	1858	2079,13208007813	5,12820512820513	-4,76190476190476	-5,49450549450549
2753	1856	1828	1859	2084,01489257813	5,49450549450549	-4,76190476190476	-5,86080586080586
2913	1856	1828	1858	2088,89770507813	5,49450549450549	-4,76190476190476	-5,49450549450549
3073	1857	1830	1860	2093,78051757813	4,76190476190476	-5,12820512820513	-6,22710622710623
3233	1858	1830	1860	2098,66333007813	4,76190476190476	-5,49450549450549	-6,22710622710623
3393	1856	1829	1859	2103,54614257813	5,12820512820513	-4,76190476190476	-5,86080586080586
3553	1858	1830	1856	2108,42895507813	4,76190476190476	-5,49450549450549	-4,76190476190476
3713	1856	1829	1859	2113,31176757813	5,12820512820513	-4,76190476190476	-5,86080586080586
3873	1855	1829	1858	2118,19458007813	5,12820512820513	-4,3956043956044	-5,49450549450549
4033	1854	1828	1858	2123,07739257813	5,49450549450549	-4,02930402930403	-5,49450549450549
4193	1856	1828	1858	2127,96020507813	5,49450549450549	-4,76190476190476	-5,49450549450549
4353	1855	1829	1859	2132,84301757813	5,12820512820513	-4,3956043956044	-5,86080586080586
4513	1856	1828	1858	2137,72583007813	5,49450549450549	-4,76190476190476	-5,49450549450549
4673	1856	1829	1859	2142,60864257813	5,12820512820513	-4,76190476190476	-5,86080586080586
4833	1856	1831	1859	2147,49145507813	4,3956043956044	-4,76190476190476	-5,86080586080586
4993	1856	1830	1859	2152,37426757813	4,76190476190476	-4,76190476190476	-5,86080586080586
5153	1855	1828	1858	2157,25708007813	5,49450549450549	-4,3956043956044	-5,49450549450549
5313	1856	1829	1859	2162,13989257813	5,12820512820513	-4,76190476190476	-5,86080586080586
5473	1856	1828	1857	2167,02270507813	5,49450549450549	-4,76190476190476	-5,12820512820513
5633	1856	1829	1858	2171,90551757813	5,12820512820513	-4,76190476190476	-5,49450549450549
5793	1856	1829	1858	2176,78833007813	5,12820512820513	-4,76190476190476	-5,49450549450549
5953	1856	1829	1858	2181,67114257813	5,12820512820513	-4,76190476190476	-5,49450549450549
6113	1857	1828	1859	2186,55395507813	5,49450549450549	-5,12820512820513	-5,86080586080586
6273	1857	1830	1860	2191,43676757813	4,76190476190476	-5,12820512820513	-6,22710622710623
6433	1857	1830	1860	2196,31958007813	4,76190476190476	-5,12820512820513	-6,22710622710623
6593	1857	1830	1860	2201,20239257813	4,76190476190476	-5,12820512820513	-6,22710622710623
6753	1857	1830	1858	2206,08520507813	4,76190476190476	-5,12820512820513	-5,49450549450549
6913	1854	1828	1858	2210,96801757813	5,49450549450549	-4,02930402930403	-5,49450549450549
7073	1854	1829	1858	2215,85083007813	5,12820512820513	-4,02930402930403	-5,49450549450549
7233	1856	1828	1858	2220,73364257813	5,49450549450549	-4,76190476190476	-5,49450549450549
7393	1856	1829	1858	2225,61645507813	5,12820512820513	-4,76190476190476	-5,49450549450549
7553	1856	1830	1860	2230,49926757813	4,76190476190476	-4,76190476190476	-6,22710622710623
7713	1857	1830	1859	2235,38208007813	4,76190476190476	-5,12820512820513	-5,86080586080586
7873	1856	1829	1859	2240,26489257813	5,12820512820513	-4,76190476190476	-5,86080586080586
8033	1855	1828	1866	2245,14770507813	5,49450549450549	-4,3956043956044	-8,42490842490843
8193	1857	1830	1860	2250,03051757813	4,76190476190476	-5,12820512820513	-6,22710622710623
8353	1857	1829	1860	2254,91333007813	5,12820512820513	-5,12820512820513	-6,22710622710623
8513	1856	1829	1859	2259,79614257813	5,12820512820513	-4,76190476190476	-5,86080586080586
8673	1856	1828	1859	2264,67895507813	5,49450549450549	-4,76190476190476	-5,86080586080586
8833	1855	1828	1859	2269,56176757813	5,49450549450549	-4,3956043956044	-5,86080586080586
8993	1855	1828	1858	2274,44458007813	5,49450549450549	-4,3956043956044	-5,49450549450549
9153	1856	1829	1858	2279,32739257813	5,12820512820513	-4,76190476190476	-5,49450549450549
9313	1857	1830	1859	2284,21020507813	4,76190476190476	-5,12820512820513	-5,86080586080586
9473	1857	1829	1859	2289,09301757813	5,12820512820513	-5,12820512820513	-5,86080586080586
9633	1856	1829	1858	2293,97583007813	5,12820512820513	-4,76190476190476	-5,49450549450549
9793	1856	1830	1857	2298,85864257813	4,76190476190476	-4,76190476190476	-5,12820512820513
9953	1857	1830	1860	2303,74145507813	4,76190476190476	-5,12820512820513	-6,22710622710623
10113	1856	1829	1858	2308,62426757813	5,12820512820513	-4,76190476190476	-5,49450549450549
10273	1856	1829	1858	2313,50708007813	5,12820512820513	-4,76190476190476	-5,49450549450549
10433	1856	1828	1858	2318,38989257813	5,49450549450549	-4,76190476190476	-5,49450549450549
10593	1854	1827	1859	2323,27270507813	5,86080586080586	-4,02930402930403	-5,86080586080586
10753	1856	1828	1858	2328,15551757813	5,49450549450549	-4,76190476190476	-5,49450549450549
10913	1856	1828	1858	2333,03833007813	5,49450549450549	-4,76190476190476	-5,49450549450549
11073	1856	1829	1858	2337,92114257813	5,12820512820513	-4,76190476190476	-5,49450549450549
11233	1857	1829	1858	2342,80395507813	5,12820512820513	-5,12820512820513	-5,49450549450549
11393	1856	1829	1858	2347,68676757813	5,12820512820513	-4,76190476190476	-5,49450549450549
11553	1858	1830	1859	2352,56958007813	4,76190476190476	-5,49450549450549	-5,86080586080586
11713	1857	1830	1860	2357,45239257813	4,76190476190476	-5,12820512820513	-6,22710622710623
11873	1858	1830	1859	2362,33520507813	4,76190476190476	-5,49450549450549	-5,86080586080586
12033	1856	1829	1859	2367,21801757813	5,12820512820513	-4,76190476190476	-5,86080586080586
12193	1858	1831	1860	2372,10083007813	4,3956043956044	-5,49450549450549	-6,22710622710623
12353	1858	1831	1861	2376,98364257813	4,3956043956044	-5,49450549450549	-6,59340659340659
12513	1855	1828	1858	2381,86645507813	5,49450549450549	-4,3956043956044	-5,49450549450549
12673	1856	1828	1858	2386,74926757813	5,49450549450549	-4,76190476190476	-5,49450549450549
12833	1856	1827	1858	2391,63208007813	5,86080586080586	-4,76190476190476	-5,49450549450549
12993	1856	1828	1859	2396,51489257813	5,49450549450549	-4,76190476190476	-5,86080586080586
13153	1855	1828	1858	2401,39770507813	5,49450549450549	-4,3956043956044	-5,49450549450549
13313	1857	1830	1859	2406,28051757813	4,76190476190476	-5,12820512820513	-5,86080586080586
13473	1856	1830	1859	2411,16333007813	4,76190476190476	-4,76190476190476	-5,86080586080586
13633	1856	1829	1859	2416,04614257813	5,12820512820513	-4,76190476190476	-5,86080586080586
13793	1855	1828	1858	2420,92895507813	5,49450549450549	-4,3956043956044	-5,49450549450549
13953	1856	1828	1857	2425,81176757813	5,49450549450549	-4,76190476190476	-5,12820512820513
14113	1855	1828	1858	2430,69458007813	5,49450549450549	-4,3956043956044	-5,49450549450549
14273	1855	1828	1858	2435,57739257813	5,49450549450549	-4,3956043956044	-5,49450549450549
14433	1856	1828	1858	2440,46020507813	5,49450549450549	-4,76190476190476	-5,49450549450549
14593	1855	1829	1859	2445,34301757813	5,12820512820513	-4,3956043956044	-5,86080586080586
14753	1857	1830	1859	2450,22583007813	4,76190476190476	-5,12820512820513	-5,86080586080586
14913	1858	1829	1857	2455,10864257813	5,12820512820513	-5,49450549450549	-5,12820512820513
15073	1857	1830	1860	2459,99145507813	4,76190476190476	-5,12820512820513	-6,22710622710623
15233	1857	1829	1859	2464,87426757813	5,12820512820513	-5,12820512820513	-5,86080586080586
15393	1856	1828	1857	2469,75708007813	5,49450549450549	-4,76190476190476	-5,12820512820513
15553	1856	1829	1858	2474,63989257813	5,12820512820513	-4,76190476190476	-5,49450549450549
15713	1858	1831	1861	2479,52270507813	4,3956043956044	-5,49450549450549	-6,59340659340659
15873	1858	1831	1861	2484,40551757813	4,3956043956044	-5,49450549450549	-6,59340659340659
16033	1856	1828	1858	2489,28833007813	5,49450549450549	-4,76190476190476	-5,49450549450549
16193	1856	1828	1857	2494,17114257813	5,49450549450549	-4,76190476190476	-5,12820512820513
16353	1857	1830	1859	2499,05395507813	4,76190476190476	-5,12820512820513	-5,86080586080586
16513	1856	1828	1858	2503,93676757813	5,49450549450549	-4,76190476190476	-5,49450549450549
16673	1857	1829	1859	2508,81958007813	5,12820512820513	-5,12820512820513	-5,86080586080586
16833	1857	1830	1859	2513,70239257813	4,76190476190476	-5,12820512820513	-5,86080586080586
16993	1855	1829	1859	2518,58520507813	5,12820512820513	-4,3956043956044	-5,86080586080586
17153	1856	1828	1858	2523,46801757813	5,49450549450549	-4,76190476190476	-5,49450549450549
17313	1855	1829	1858	2528,35083007813	5,12820512820513	-4,3956043956044	-5,49450549450549
17473	1856	1829	1858	2533,23364257813	5,12820512820513	-4,76190476190476	-5,49450549450549
17633	1855	1828	1858	2538,11645507813	5,49450549450549	-4,3956043956044	-5,49450549450549
17793	1856	1828	1858	2542,99926757813	5,49450549450549	-4,76190476190476	-5,49450549450549
17953	1857	1827	1858	2547,88208007813	5,86080586080586	-5,12820512820513	-5,49450549450549
18113	1856	1829	1859	2552,76489257813	5,12820512820513	-4,76190476190476	-5,86080586080586
18273	1857	1828	1858	2557,64770507813	5,49450549450549	-5,12820512820513	-5,49450549450549
18433	1857	1829	1859	2562,53051757813	5,12820512820513	-5,12820512820513	-5,86080586080586
18593	1856	1831	1860	2567,41333007813	4,3956043956044	-4,76190476190476	-6,22710622710623
18753	1856	1828	1857	2572,29614257813	5,49450549450549	-4,76190476190476	-5,12820512820513
18913	1855	1828	1857	2577,17895507813	5,49450549450549	-4,3956043956044	-5,12820512820513
19073	1856	1828	1858	2582,06176757813	5,49450549450549	-4,76190476190476	-5,49450549450549
19233	1856	1828	1858	2586,94458007813	5,49450549450549	-4,76190476190476	-5,49450549450549
19393	1858	1829	1859	2591,82739257813	5,12820512820513	-5,49450549450549	-5,86080586080586
19553	1856	1829	1858	2596,71020507813	5,12820512820513	-4,76190476190476	-5,49450549450549
19713	1856	1829	1859	2601,59301757813	5,12820512820513	-4,76190476190476	-5,86080586080586
19873	1856	1829	1858	2606,47583007813	5,12820512820513	-4,76190476190476	-5,49450549450549
20033	1857	1829	1856	2611,35864257813	5,12820512820513	-5,12820512820513	-4,76190476190476
20193	1857	1829	1859	2616,24145507813	5,12820512820513	-5,12820512820513	-5,86080586080586
20353	1857	1830	1859	2621,12426757813	4,76190476190476	-5,12820512820513	-5,86080586080586
20513	1858	1831	1858	2626,00708007813	4,3956043956044	-5,49450549450549	-5,49450549450549
20673	1857	1829	1860	2630,88989257813	5,12820512820513	-5,12820512820513	-6,22710622710623
20833	1858	1828	1856	2635,77270507813	5,49450549450549	-5,49450549450549	-4,76190476190476
20993	1858	1831	1860	2640,65551757813	4,3956043956044	-5,49450549450549	-6,22710622710623
21153	1857	1829	1859	2645,53833007813	5,12820512820513	-5,12820512820513	-5,86080586080586
21313	1856	1828	1858	2650,42114257813	5,49450549450549	-4,76190476190476	-5,49450549450549
21473	1855	1830	1858	2655,30395507813	4,76190476190476	-4,3956043956044	-5,49450549450549
21633	1856	1828	1857	2660,18676757813	5,49450549450549	-4,76190476190476	-5,12820512820513
21793	1857	1830	1860	2665,06958007813	4,76190476190476	-5,12820512820513	-6,22710622710623
21953	1857	1830	1859	2669,95239257813	4,76190476190476	-5,12820512820513	-5,86080586080586
22113	1856	1829	1859	2674,83520507813	5,12820512820513	-4,76190476190476	-5,86080586080586
22273	1856	1828	1858	2679,71801757813	5,49450549450549	-4,76190476190476	-5,49450549450549
22433	1856	1828	1858	2684,60083007813	5,49450549450549	-4,76190476190476	-5,49450549450549
22593	1857	1828	1858	2689,48364257813	5,49450549450549	-5,12820512820513	-5,49450549450549
22753	1855	1828	1859	2694,36645507813	5,49450549450549	-4,3956043956044	-5,86080586080586
22913	1857	1826	1859	2699,24926757813	6,22710622710623	-5,12820512820513	-5,86080586080586
23073	1857	1830	1859	2704,13208007813	4,76190476190476	-5,12820512820513	-5,86080586080586
23233	1856	1829	1859	2709,01489257813	5,12820512820513	-4,76190476190476	-5,86080586080586
23393	1857	1828	1858	2713,89770507813	5,49450549450549	-5,12820512820513	-5,49450549450549
23553	1857	1830	1859	2718,78051757813	4,76190476190476	-5,12820512820513	-5,86080586080586
23713	1857	1831	1859	2723,66333007813	4,3956043956044	-5,12820512820513	-5,86080586080586
23873	1856	1828	1858	2728,54614257813	5,49450549450549	-4,76190476190476	-5,49450549450549
24033	1856	1829	1858	2733,42895507813	5,12820512820513	-4,76190476190476	-5,49450549450549
24193	1856	1828	1858	2738,31176757813	5,49450549450549	-4,76190476190476	-5,49450549450549
24353	1858	1830	1860	2743,19458007813	4,76190476190476	-5,49450549450549	-6,22710622710623
24513	1857	1830	1860	2748,07739257813	4,76190476190476	-5,12820512820513	-6,22710622710623
24673	1856	1828	1858	2752,96020507813	5,49450549450549	-4,76190476190476	-5,49450549450549
24833	1857	1829	1859	2757,84301757813	5,12820512820513	-5,12820512820513	-5,86080586080586
24993	1856	1829	1859	2762,72583007813	5,12820512820513	-4,76190476190476	-5,86080586080586
25153	1857	1827	1859	2767,60864257813	5,86080586080586	-5,12820512820513	-5,86080586080586
25313	1857	1830	1859	2772,49145507813	4,76190476190476	-5,12820512820513	-5,86080586080586
25473	1856	1829	1859	2777,37426757813	5,12820512820513	-4,76190476190476	-5,86080586080586
25633	1856	1829	1857	2782,25708007813	5,12820512820513	-4,76190476190476	-5,12820512820513
25793	1856	1828	1858	2787,13989257813	5,49450549450549	-4,76190476190476	-5,49450549450549
25953	1856	1829	1858	2792,02270507813	5,12820512820513	-4,76190476190476	-5,49450549450549
26113	1856	1828	1858	2796,90551757813	5,49450549450549	-4,76190476190476	-5,49450549450549
26273	1856	1828	1858	2801,78833007813	5,49450549450549	-4,76190476190476	-5,49450549450549
26433	1856	1828	1858	2806,67114257813	5,49450549450549	-4,76190476190476	-5,49450549450549
26593	1856	1830	1859	2811,55395507813	4,76190476190476	-4,76190476190476	-5,86080586080586
26753	1857	1830	1860	2816,43676757813	4,76190476190476	-5,12820512820513	-6,22710622710623
26913	1858	1830	1860	2821,31958007813	4,76190476190476	-5,49450549450549	-6,22710622710623
27073	1857	1830	1860	2826,20239257813	4,76190476190476	-5,12820512820513	-6,22710622710623
27233	1856	1830	1860	2831,08520507813	4,76190476190476	-4,76190476190476	-6,22710622710623
27393	1855	1827	1857	2835,96801757813	5,86080586080586	-4,3956043956044	-5,12820512820513
27553	1856	1828	1858	2840,85083007813	5,49450549450549	-4,76190476190476	-5,49450549450549
27713	1856	1828	1857	2845,73364257813	5,49450549450549	-4,76190476190476	-5,12820512820513
27873	1857	1831	1860	2850,61645507813	4,3956043956044	-5,12820512820513	-6,22710622710623
28033	1857	1830	1860	2855,49926757813	4,76190476190476	-5,12820512820513	-6,22710622710623
28193	1857	1828	1859	2860,38208007813	5,49450549450549	-5,12820512820513	-5,86080586080586
28353	1856	1828	1858	2865,26489257813	5,49450549450549	-4,76190476190476	-5,49450549450549
28513	1856	1829	1858	2870,14770507813	5,12820512820513	-4,76190476190476	-5,49450549450549
28673	1857	1830	1860	2875,03051757813	4,76190476190476	-5,12820512820513	-6,22710622710623
28833	1856	1829	1859	2879,91333007813	5,12820512820513	-4,76190476190476	-5,86080586080586
28993	1857	1829	1859	2884,79614257813	5,12820512820513	-5,12820512820513	-5,86080586080586
29153	1857	1827	1859	2889,67895507813	5,86080586080586	-5,12820512820513	-5,86080586080586
29313	1856	1828	1859	2894,56176757813	5,49450549450549	-4,76190476190476	-5,86080586080586
29473	1856	1828	1858	2899,44458007813	5,49450549450549	-4,76190476190476	-5,49450549450549
29633	1856	1828	1857	2904,32739257813	5,49450549450549	-4,76190476190476	-5,12820512820513
29793	1856	1829	1858	2909,21020507813	5,12820512820513	-4,76190476190476	-5,49450549450549
29953	1857	1828	1858	2914,09301757813	5,49450549450549	-5,12820512820513	-5,49450549450549
30113	1855	1828	1858	2918,97583007813	5,49450549450549	-4,3956043956044	-5,49450549450549
30273	1857	1830	1859	2923,85864257813	4,76190476190476	-5,12820512820513	-5,86080586080586
30433	1857	1831	1860	2928,74145507813	4,3956043956044	-5,12820512820513	-6,22710622710623
30593	1856	1829	1859	2933,62426757813	5,12820512820513	-4,76190476190476	-5,86080586080586
30753	1855	1828	1858	2938,50708007813	5,49450549450549	-4,3956043956044	-5,49450549450549
30913	1855	1828	1858	2943,38989257813	5,49450549450549	-4,3956043956044	-5,49450549450549
31073	1855	1826	1857	2948,27270507813	6,22710622710623	-4,3956043956044	-5,12820512820513
31233	1856	1828	1857	2953,15551757813	5,49450549450549	-4,76190476190476	-5,12820512820513
31393	1858	1829	1859	2958,03833007813	5,12820512820513	-5,49450549450549	-5,86080586080586
31553	1856	1829	1858	2962,92114257813	5,12820512820513	-4,76190476190476	-5,49450549450549
31713	1857	1830	1858	2967,80395507813	4,76190476190476	-5,12820512820513	-5,49450549450549
31873	1856	1829	1858	2972,68676757813	5,12820512820513	-4,76190476190476	-5,49450549450549
32033	1858	1831	1860	2977,56958007813	4,3956043956044	-5,49450549450549	-6,22710622710623
32193	1858	1830	1860	2982,45239257813	4,76190476190476	-5,49450549450549	-6,22710622710623
32353	1856	1831	1860	2987,33520507813	4,3956043956044	-4,76190476190476	-6,22710622710623
32513	1856	1828	1858	2992,21801757813	5,49450549450549	-4,76190476190476	-5,49450549450549
32673	1858	1831	1861	2997,10083007813	4,3956043956044	-5,49450549450549	-6,59340659340659
32833	1858	1831	1860	3001,98364257813	4,3956043956044	-5,49450549450549	-6,22710622710623
32993	1858	1831	1860	3006,86645507813	4,3956043956044	-5,49450549450549	-6,22710622710623
33153	1857	1829	1860	3011,74926757813	5,12820512820513	-5,12820512820513	-6,22710622710623
33313	1856	1829	1858	3016,63208007813	5,12820512820513	-4,76190476190476	-5,49450549450549
33473	1856	1828	1858	3021,51489257813	5,49450549450549	-4,76190476190476	-5,49450549450549
33633	1856	1829	1858	3026,39770507813	5,12820512820513	-4,76190476190476	-5,49450549450549
33793	1857	1831	1860	3031,28051757813	4,3956043956044	-5,12820512820513	-6,22710622710623
33953	1857	1829	1860	3036,16333007813	5,12820512820513	-5,12820512820513	-6,22710622710623
34113	1856	1829	1859	3041,04614257813	5,12820512820513	-4,76190476190476	-5,86080586080586
34273	1856	1828	1858	3045,92895507813	5,49450549450549	-4,76190476190476	-5,49450549450549
34433	1858	1831	1860	3050,81176757813	4,3956043956044	-5,49450549450549	-6,22710622710623
34593	1859	1831	1861	3055,69458007813	4,3956043956044	-5,86080586080586	-6,59340659340659
34753	1856	1828	1858	3060,57739257813	5,49450549450549	-4,76190476190476	-5,49450549450549
34913	1856	1828	1858	3065,46020507813	5,49450549450549	-4,76190476190476	-5,49450549450549
35073	1857	1830	1859	3070,34301757813	4,76190476190476	-5,12820512820513	-5,86080586080586
35233	1858	1830	1859	3075,22583007813	4,76190476190476	-5,49450549450549	-5,86080586080586
35393	1857	1830	1859	3080,10864257813	4,76190476190476	-5,12820512820513	-5,86080586080586
35553	1857	1830	1859	3084,99145507813	4,76190476190476	-5,12820512820513	-5,86080586080586
35713	1857	1829	1859	3089,87426757813	5,12820512820513	-5,12820512820513	-5,86080586080586
35873	1856	1829	1858	3094,75708007813	5,12820512820513	-4,76190476190476	-5,49450549450549
36033	1856	1828	1858	3099,63989257813	5,49450549450549	-4,76190476190476	-5,49450549450549
36193	1856	1828	1857	3104,52270507813	5,49450549450549	-4,76190476190476	-5,12820512820513
36353	1857	1830	1858	3109,40551757813	4,76190476190476	-5,12820512820513	-5,49450549450549
36513	1856	1829	1857	3114,28833007813	5,12820512820513	-4,76190476190476	-5,12820512820513
36673	1856	1828	1858	3119,17114257813	5,49450549450549	-4,76190476190476	-5,49450549450549
36833	1856	1830	1859	3124,05395507813	4,76190476190476	-4,76190476190476	-5,86080586080586
36993	1857	1827	1858	3128,93676757813	5,86080586080586	-5,12820512820513	-5,49450549450549
37153	1857	1829	1859	3133,81958007813	5,12820512820513	-5,12820512820513	-5,86080586080586
37313	1858	1831	1860	3138,70239257813	4,3956043956044	-5,49450549450549	-6,22710622710623
37473	1856	1829	1859	3143,58520507813	5,12820512820513	-4,76190476190476	-5,86080586080586
37633	1856	1828	1857	3148,46801757813	5,49450549450549	-4,76190476190476	-5,12820512820513
37793	1855	1829	1858	3153,35083007813	5,12820512820513	-4,3956043956044	-5,49450549450549
37953	1856	1828	1858	3158,23364257813	5,49450549450549	-4,76190476190476	-5,49450549450549
38113	1857	1830	1860	3163,11645507813	4,76190476190476	-5,12820512820513	-6,22710622710623
38273	1857	1829	1862	3167,99926757813	5,12820512820513	-5,12820512820513	-6,95970695970696
38433	1856	1829	1859	3172,88208007813	5,12820512820513	-4,76190476190476	-5,86080586080586
38593	1856	1828	1857	3177,76489257813	5,49450549450549	-4,76190476190476	-5,12820512820513
38753	1856	1829	1857	3182,64770507813	5,12820512820513	-4,76190476190476	-5,12820512820513
38913	1857	1830	1859	3187,53051757813	4,76190476190476	-5,12820512820513	-5,86080586080586
39073	1857	1829	1859	3192,41333007813	5,12820512820513	-5,12820512820513	-5,86080586080586
39233	1856	1828	1858	3197,29614257813	5,49450549450549	-4,76190476190476	-5,49450549450549
39393	1859	1829	1855	3202,17895507813	5,12820512820513	-5,86080586080586	-4,3956043956044
39553	1856	1828	1858	3207,06176757813	5,49450549450549	-4,76190476190476	-5,49450549450549
39713	1855	1828	1857	3211,94458007813	5,49450549450549	-4,3956043956044	-5,12820512820513
39873	1856	1828	1858	3216,82739257813	5,49450549450549	-4,76190476190476	-5,49450549450549
40033	1856	1829	1858	3221,71020507813	5,12820512820513	-4,76190476190476	-5,49450549450549
40193	1856	1829	1858	3226,59301757813	5,12820512820513	-4,76190476190476	-5,49450549450549
40353	1856	1828	1857	3231,47583007813	5,49450549450549	-4,76190476190476	-5,12820512820513
40513	1857	1829	1859	3236,35864257813	5,12820512820513	-5,12820512820513	-5,86080586080586
40673	1857	1830	1859	3241,24145507813	4,76190476190476	-5,12820512820513	-5,86080586080586
40833	1857	1829	1859	3246,12426757813	5,12820512820513	-5,12820512820513	-5,86080586080586
40993	1856	1828	1858	3251,00708007813	5,49450549450549	-4,76190476190476	-5,49450549450549
41153	1856	1828	1858	3255,88989257813	5,49450549450549	-4,76190476190476	-5,49450549450549
41313	1856	1828	1858	3260,77270507813	5,49450549450549	-4,76190476190476	-5,49450549450549
41473	1856	1828	1859	3265,65551757813	5,49450549450549	-4,76190476190476	-5,86080586080586
41633	1856	1828	1858	3270,53833007813	5,49450549450549	-4,76190476190476	-5,49450549450549
41793	1857	1829	1858	3275,42114257813	5,12820512820513	-5,12820512820513	-5,49450549450549
41953	1857	1829	1859	3280,30395507813	5,12820512820513	-5,12820512820513	-5,86080586080586
42113	1856	1828	1858	3285,18676757813	5,49450549450549	-4,76190476190476	-5,49450549450549
42273	1858	1830	1859	3290,06958007813	4,76190476190476	-5,49450549450549	-5,86080586080586
42433	1856	1829	1859	3294,95239257813	5,12820512820513	-4,76190476190476	-5,86080586080586
42593	1856	1828	1859	3299,83520507813	5,49450549450549	-4,76190476190476	-5,86080586080586
42753	1856	1828	1858	3304,71801757813	5,49450549450549	-4,76190476190476	-5,49450549450549
42913	1859	1831	1860	3309,60083007813	4,3956043956044	-5,86080586080586	-6,22710622710623
43073	1858	1831	1860	3314,48364257813	4,3956043956044	-5,49450549450549	-6,22710622710623
43233	1857	1829	1862	3319,36645507813	5,12820512820513	-5,12820512820513	-6,95970695970696
43393	1856	1828	1858	3324,24926757813	5,49450549450549	-4,76190476190476	-5,49450549450549
43553	1856	1830	1857	3329,13208007813	4,76190476190476	-4,76190476190476	-5,12820512820513
43713	1855	1828	1858	3334,01489257813	5,49450549450549	-4,3956043956044	-5,49450549450549
43873	1857	1827	1858	3338,89770507813	5,86080586080586	-5,12820512820513	-5,49450549450549
44033	1858	1830	1860	3343,78051757813	4,76190476190476	-5,49450549450549	-6,22710622710623
44193	1856	1829	1861	3348,66333007813	5,12820512820513	-4,76190476190476	-6,59340659340659
44353	1856	1828	1858	3353,54614257813	5,49450549450549	-4,76190476190476	-5,49450549450549
44513	1856	1829	1857	3358,42895507813	5,12820512820513	-4,76190476190476	-5,12820512820513
44673	1857	1827	1858	3363,31176757813	5,86080586080586	-5,12820512820513	-5,49450549450549
44833	1856	1829	1858	3368,19458007813	5,12820512820513	-4,76190476190476	-5,49450549450549
44993	1856	1828	1857	3373,07739257813	5,49450549450549	-4,76190476190476	-5,12820512820513
45153	1856	1828	1858	3377,96020507813	5,49450549450549	-4,76190476190476	-5,49450549450549
45313	1857	1829	1858	3382,84301757813	5,12820512820513	-5,12820512820513	-5,49450549450549
45473	1856	1828	1858	3387,72583007813	5,49450549450549	-4,76190476190476	-5,49450549450549
45633	1858	1830	1860	3392,60864257813	4,76190476190476	-5,49450549450549	-6,22710622710623
45793	1857	1829	1859	3397,49145507813	5,12820512820513	-5,12820512820513	-5,86080586080586
45953	1857	1829	1859	3402,37426757813	5,12820512820513	-5,12820512820513	-5,86080586080586
46113	1856	1828	1858	3407,25708007813	5,49450549450549	-4,76190476190476	-5,49450549450549
46273	1856	1828	1857	3412,13989257813	5,49450549450549	-4,76190476190476	-5,12820512820513
46433	1856	1828	1858	3417,02270507813	5,49450549450549	-4,76190476190476	-5,49450549450549
46593	1856	1828	1857	3421,90551757813	5,49450549450549	-4,76190476190476	-5,12820512820513
46753	1856	1828	1858	3426,78833007813	5,49450549450549	-4,76190476190476	-5,49450549450549
46913	1855	1828	1857	3431,67114257813	5,49450549450549	-4,3956043956044	-5,12820512820513
47073	1856	1829	1858	3436,55395507813	5,12820512820513	-4,76190476190476	-5,49450549450549
47233	1857	1829	1859	3441,43676757813	5,12820512820513	-5,12820512820513	-5,86080586080586
47393	1858	1830	1860	3446,31958007813	4,76190476190476	-5,49450549450549	-6,22710622710623
47553	1858	1830	1859	3451,20239257813	4,76190476190476	-5,49450549450549	-5,86080586080586
47713	1856	1828	1860	3456,08520507813	5,49450549450549	-4,76190476190476	-6,22710622710623
47873	1855	1828	1857	3460,96801757813	5,49450549450549	-4,3956043956044	-5,12820512820513
48033	1856	1828	1858	3465,85083007813	5,49450549450549	-4,76190476190476	-5,49450549450549
48193	1856	1828	1858	3470,73364257813	5,49450549450549	-4,76190476190476	-5,49450549450549
48353	1856	1829	1858	3475,61645507813	5,12820512820513	-4,76190476190476	-5,49450549450549
48513	1856	1830	1859	3480,49926757813	4,76190476190476	-4,76190476190476	-5,86080586080586
48673	1857	1829	1858	3485,38208007813	5,12820512820513	-5,12820512820513	-5,49450549450549
48833	1856	1828	1858	3490,26489257813	5,49450549450549	-4,76190476190476	-5,49450549450549
48993	1857	1827	1858	3495,14770507813	5,86080586080586	-5,12820512820513	-5,49450549450549
49153	1858	1830	1860	3500,03051757813	4,76190476190476	-5,49450549450549	-6,22710622710623
49313	1856	1830	1859	3504,91333007813	4,76190476190476	-4,76190476190476	-5,86080586080586
49473	1856	1829	1858	3509,79614257813	5,12820512820513	-4,76190476190476	-5,49450549450549
49633	1858	1830	1860	3514,67895507813	4,76190476190476	-5,49450549450549	-6,22710622710623
49793	1856	1827	1858	3519,56176757813	5,86080586080586	-4,76190476190476	-5,49450549450549
49953	1858	1831	1861	3524,44458007813	4,3956043956044	-5,49450549450549	-6,59340659340659
50113	1856	1828	1858	3529,32739257813	5,49450549450549	-4,76190476190476	-5,49450549450549
50273	1856	1828	1858	3534,21020507813	5,49450549450549	-4,76190476190476	-5,49450549450549
50433	1857	1829	1858	3539,09301757813	5,12820512820513	-5,12820512820513	-5,49450549450549
50593	1856	1828	1857	3543,97583007813	5,49450549450549	-4,76190476190476	-5,12820512820513
50753	1857	1830	1858	3548,85864257813	4,76190476190476	-5,12820512820513	-5,49450549450549
50913	1857	1830	1860	3553,74145507813	4,76190476190476	-5,12820512820513	-6,22710622710623
51073	1856	1829	1859	3558,62426757813	5,12820512820513	-4,76190476190476	-5,86080586080586
51233	1857	1828	1858	3563,50708007813	5,49450549450549	-5,12820512820513	-5,49450549450549
51393	1856	1828	1858	3568,38989257813	5,49450549450549	-4,76190476190476	-5,49450549450549
51553	1856	1829	1858	3573,27270507813	5,12820512820513	-4,76190476190476	-5,49450549450549
51713	1856	1829	1857	3578,15551757813	5,12820512820513	-4,76190476190476	-5,12820512820513
51873	1856	1828	1858	3583,03833007813	5,49450549450549	-4,76190476190476	-5,49450549450549
52033	1853	1828	1858	3587,92114257813	5,49450549450549	-3,66300366300366	-5,49450549450549
52193	1856	1829	1859	3592,80395507813	5,12820512820513	-4,76190476190476	-5,86080586080586
52353	1856	1828	1858	3597,68676757813	5,49450549450549	-4,76190476190476	-5,49450549450549
52513	1858	1830	1860	3602,56958007813	4,76190476190476	-5,49450549450549	-6,22710622710623
52673	1859	1830	1859	3607,45239257813	4,76190476190476	-5,86080586080586	-5,86080586080586
52833	1855	1828	1860	3612,33520507813	5,49450549450549	-4,3956043956044	-6,22710622710623
52993	1856	1828	1858	3617,21801757813	5,49450549450549	-4,76190476190476	-5,49450549450549
53153	1856	1828	1858	3622,10083007813	5,49450549450549	-4,76190476190476	-5,49450549450549
53313	1856	1828	1858	3626,98364257813	5,49450549450549	-4,76190476190476	-5,49450549450549
53473	1855	1828	1858	3631,86645507813	5,49450549450549	-4,3956043956044	-5,49450549450549
53633	1856	1828	1858	3636,74926757813	5,49450549450549	-4,76190476190476	-5,49450549450549
53793	1857	1830	1857	3641,63208007813	4,76190476190476	-5,12820512820513	-5,12820512820513
53953	1856	1829	1859	3646,51489257813	5,12820512820513	-4,76190476190476	-5,86080586080586
54113	1857	1830	1859	3651,39770507813	4,76190476190476	-5,12820512820513	-5,86080586080586
54273	1857	1830	1859	3656,28051757813	4,76190476190476	-5,12820512820513	-5,86080586080586
54433	1856	1829	1859	3661,16333007813	5,12820512820513	-4,76190476190476	-5,86080586080586
54593	1856	1828	1858	3666,04614257813	5,49450549450549	-4,76190476190476	-5,49450549450549
54753	1856	1828	1858	3670,92895507813	5,49450549450549	-4,76190476190476	-5,49450549450549
54913	1856	1829	1858	3675,81176757813	5,12820512820513	-4,76190476190476	-5,49450549450549
55073	1856	1829	1859	3680,69458007813	5,12820512820513	-4,76190476190476	-5,86080586080586
55233	1856	1828	1858	3685,57739257813	5,49450549450549	-4,76190476190476	-5,49450549450549
55393	1856	1829	1858	3690,46020507813	5,12820512820513	-4,76190476190476	-5,49450549450549
55553	1856	1829	1859	3695,34301757813	5,12820512820513	-4,76190476190476	-5,86080586080586
55713	1856	1829	1859	3700,22583007813	5,12820512820513	-4,76190476190476	-5,86080586080586
55873	1857	1830	1856	3705,10864257813	4,76190476190476	-5,12820512820513	-4,76190476190476
56033	1858	1830	1859	3709,99145507813	4,76190476190476	-5,49450549450549	-5,86080586080586
56193	1857	1829	1859	3714,87426757813	5,12820512820513	-5,12820512820513	-5,86080586080586
56353	1856	1828	1858	3719,75708007813	5,49450549450549	-4,76190476190476	-5,49450549450549
56513	1859	1831	1861	3724,63989257813	4,3956043956044	-5,86080586080586	-6,59340659340659
56673	1858	1831	1860	3729,52270507813	4,3956043956044	-5,49450549450549	-6,22710622710623
56833	1859	1831	1860	3734,40551757813	4,3956043956044	-5,86080586080586	-6,22710622710623
56993	1856	1828	1858	3739,28833007813	5,49450549450549	-4,76190476190476	-5,49450549450549
57153	1856	1829	1858	3744,17114257813	5,12820512820513	-4,76190476190476	-5,49450549450549
57313	1856	1828	1859	3749,05395507813	5,49450549450549	-4,76190476190476	-5,86080586080586
57473	1856	1828	1858	3753,93676757813	5,49450549450549	-4,76190476190476	-5,49450549450549
57633	1858	1830	1859	3758,81958007813	4,76190476190476	-5,49450549450549	-5,86080586080586
57793	1859	1830	1859	3763,70239257813	4,76190476190476	-5,86080586080586	-5,86080586080586
57953	1856	1829	1859	3768,58520507813	5,12820512820513	-4,76190476190476	-5,86080586080586
58113	1855	1828	1858	3773,46801757813	5,49450549450549	-4,3956043956044	-5,49450549450549
58273	1856	1829	1858	3778,35083007813	5,12820512820513	-4,76190476190476	-5,49450549450549
58433	1856	1829	1858	3783,23364257813	5,12820512820513	-4,76190476190476	-5,49450549450549
58593	1856	1828	1858	3788,11645507813	5,49450549450549	-4,76190476190476	-5,49450549450549
58753	1856	1828	1858	3792,99926757813	5,49450549450549	-4,76190476190476	-5,49450549450549
58913	1857	1829	1859	3797,88208007813	5,12820512820513	-5,12820512820513	-5,86080586080586
59073	1856	1829	1858	3802,76489257813	5,12820512820513	-4,76190476190476	-5,49450549450549
59233	1857	1830	1859	3807,64770507813	4,76190476190476	-5,12820512820513	-5,86080586080586
59393	1857	1830	1860	3812,53051757813	4,76190476190476	-5,12820512820513	-6,22710622710623
59553	1858	1829	1859	3817,41333007813	5,12820512820513	-5,49450549450549	-5,86080586080586
59713	1856	1829	1858	3822,29614257813	5,12820512820513	-4,76190476190476	-5,49450549450549
59873	1856	1828	1858	3827,17895507813	5,49450549450549	-4,76190476190476	-5,49450549450549
60033	1856	1828	1858	3832,06176757813	5,49450549450549	-4,76190476190476	-5,49450549450549
60193	1859	1830	1860	3836,94458007813	4,76190476190476	-5,86080586080586	-6,22710622710623
60353	1857	1830	1859	3841,82739257813	4,76190476190476	-5,12820512820513	-5,86080586080586
60513	1856	1828	1858	3846,71020507813	5,49450549450549	-4,76190476190476	-5,49450549450549
60673	1857	1829	1859	3851,59301757813	5,12820512820513	-5,12820512820513	-5,86080586080586
60833	1856	1828	1858	3856,47583007813	5,49450549450549	-4,76190476190476	-5,49450549450549
60993	1858	1830	1859	3861,35864257813	4,76190476190476	-5,49450549450549	-5,86080586080586
61153	1857	1830	1860	3866,24145507813	4,76190476190476	-5,12820512820513	-6,22710622710623
61313	1857	1829	1859	3871,12426757813	5,12820512820513	-5,12820512820513	-5,86080586080586
61473	1856	1829	1858	3876,00708007813	5,12820512820513	-4,76190476190476	-5,49450549450549
61633	1856	1827	1857	3880,88989257813	5,86080586080586	-4,76190476190476	-5,12820512820513
61793	1855	1828	1858	3885,77270507813	5,49450549450549	-4,3956043956044	-5,49450549450549
61953	1856	1829	1858	3890,65551757813	5,12820512820513	-4,76190476190476	-5,49450549450549
62113	1855	1828	1858	3895,53833007813	5,49450549450549	-4,3956043956044	-5,49450549450549
62273	1856	1828	1858	3900,42114257813	5,49450549450549	-4,76190476190476	-5,49450549450549
62433	1856	1828	1859	3905,30395507813	5,49450549450549	-4,76190476190476	-5,86080586080586
62593	1858	1830	1860	3910,18676757813	4,76190476190476	-5,49450549450549	-6,22710622710623
62753	1857	1830	1859	3915,06958007813	4,76190476190476	-5,12820512820513	-5,86080586080586
62913	1857	1830	1860	3919,95239257813	4,76190476190476	-5,12820512820513	-6,22710622710623
63073	1856	1828	1859	3924,83520507813	5,49450549450549	-4,76190476190476	-5,86080586080586
63233	1856	1828	1858	3929,71801757813	5,49450549450549	-4,76190476190476	-5,49450549450549
63393	1856	1828	1858	3934,60083007813	5,49450549450549	-4,76190476190476	-5,49450549450549
63553	1857	1829	1856	3939,48364257813	5,12820512820513	-5,12820512820513	-4,76190476190476
63713	1857	1830	1860	3944,36645507813	4,76190476190476	-5,12820512820513	-6,22710622710623
63873	1857	1829	1859	3949,24926757813	5,12820512820513	-5,12820512820513	-5,86080586080586
64033	1858	1830	1859	3954,13208007813	4,76190476190476	-5,49450549450549	-5,86080586080586
64193	1857	1830	1860	3959,01489257813	4,76190476190476	-5,12820512820513	-6,22710622710623
64353	1856	1829	1858	3963,89770507813	5,12820512820513	-4,76190476190476	-5,49450549450549
64513	1858	1830	1860	3968,78051757813	4,76190476190476	-5,49450549450549	-6,22710622710623
64673	1856	1829	1859	3973,66333007813	5,12820512820513	-4,76190476190476	-5,86080586080586
64833	1856	1830	1859	3978,54614257813	4,76190476190476	-4,76190476190476	-5,86080586080586
64993	1856	1829	1859	3983,42895507813	5,12820512820513	-4,76190476190476	-5,86080586080586
65153	1858	1828	1859	3988,31176757813	5,49450549450549	-5,49450549450549	-5,86080586080586
65313	1856	1828	1858	3993,19458007813	5,49450549450549	-4,76190476190476	-5,49450549450549
65473	1856	1828	1857	3998,07739257813	5,49450549450549	-4,76190476190476	-5,12820512820513
97	1856	1828	1858	4002,96020507813	5,49450549450549	-4,76190476190476	-5,49450549450549
257	1857	1829	1859	4007,84301757813	5,12820512820513	-5,12820512820513	-5,86080586080586
417	1856	1828	1857	4012,72583007813	5,49450549450549	-4,76190476190476	-5,12820512820513
577	1857	1830	1859	4017,60864257813	4,76190476190476	-5,12820512820513	-5,86080586080586
737	1857	1830	1860	4022,49145507813	4,76190476190476	-5,12820512820513	-6,22710622710623
897	1858	1830	1858	4027,37426757813	4,76190476190476	-5,49450549450549	-5,49450549450549
1057	1856	1828	1858	4032,25708007813	5,49450549450549	-4,76190476190476	-5,49450549450549
1217	1856	1828	1859	4037,13989257813	5,49450549450549	-4,76190476190476	-5,86080586080586
1377	1856	1828	1858	4042,02270507813	5,49450549450549	-4,76190476190476	-5,49450549450549
1537	1856	1828	1858	4046,90551757813	5,49450549450549	-4,76190476190476	-5,49450549450549
1697	1856	1828	1858	4051,78833007813	5,49450549450549	-4,76190476190476	-5,49450549450549
1857	1858	1829	1859	4056,67114257813	5,12820512820513	-5,49450549450549	-5,86080586080586
2017	1857	1829	1859	4061,55395507813	5,12820512820513	-5,12820512820513	-5,86080586080586
2177	1858	1829	1856	4066,43676757813	5,12820512820513	-5,49450549450549	-4,76190476190476
2337	1857	1829	1860	4071,31958007813	5,12820512820513	-5,12820512820513	-6,22710622710623
2497	1856	1830	1860	4076,20239257813	4,76190476190476	-4,76190476190476	-6,22710622710623
2657	1856	1828	1858	4081,08520507813	5,49450549450549	-4,76190476190476	-5,49450549450549
2817	1856	1829	1858	4085,96801757813	5,12820512820513	-4,76190476190476	-5,49450549450549
2977	1856	1828	1858	4090,85083007813	5,49450549450549	-4,76190476190476	-5,49450549450549
3137	1859	1831	1860	4095,73364257813	4,3956043956044	-5,86080586080586	-6,22710622710623
3297	1857	1830	1859	4100,61645507813	4,76190476190476	-5,12820512820513	-5,86080586080586
3457	1856	1829	1859	4105,49926757813	5,12820512820513	-4,76190476190476	-5,86080586080586
3617	1856	1828	1858	4110,38208007813	5,49450549450549	-4,76190476190476	-5,49450549450549
3777	1856	1828	1858	4115,26489257813	5,49450549450549	-4,76190476190476	-5,49450549450549
3937	1857	1829	1856	4120,14770507813	5,12820512820513	-5,12820512820513	-4,76190476190476
4097	1858	1829	1859	4125,03051757813	5,12820512820513	-5,49450549450549	-5,86080586080586
4257	1856	1830	1858	4129,91333007813	4,76190476190476	-4,76190476190476	-5,49450549450549
4417	1856	1828	1858	4134,79614257813	5,49450549450549	-4,76190476190476	-5,49450549450549
4577	1858	1830	1858	4139,67895507813	4,76190476190476	-5,49450549450549	-5,49450549450549
4737	1858	1829	1855	4144,56176757813	5,12820512820513	-5,49450549450549	-4,3956043956044
4897	1856	1828	1858	4149,44458007813	5,49450549450549	-4,76190476190476	-5,49450549450549
5057	1856	1828	1858	4154,32739257813	5,49450549450549	-4,76190476190476	-5,49450549450549
5217	1856	1829	1858	4159,21020507813	5,12820512820513	-4,76190476190476	-5,49450549450549
5377	1857	1829	1859	4164,09301757813	5,12820512820513	-5,12820512820513	-5,86080586080586
5537	1856	1828	1858	4168,97583007813	5,49450549450549	-4,76190476190476	-5,49450549450549
5697	1858	1830	1860	4173,85864257813	4,76190476190476	-5,49450549450549	-6,22710622710623
5857	1858	1830	1859	4178,74145507813	4,76190476190476	-5,49450549450549	-5,86080586080586
6017	1857	1829	1858	4183,62426757813	5,12820512820513	-5,12820512820513	-5,49450549450549
6177	1855	1828	1857	4188,50708007813	5,49450549450549	-4,3956043956044	-5,12820512820513
6337	1856	1829	1859	4193,38989257813	5,12820512820513	-4,76190476190476	-5,86080586080586
6497	1856	1829	1857	4198,27270507813	5,12820512820513	-4,76190476190476	-5,12820512820513
6657	1856	1828	1857	4203,15551757813	5,49450549450549	-4,76190476190476	-5,12820512820513
6817	1856	1831	1859	4208,03833007813	4,3956043956044	-4,76190476190476	-5,86080586080586
6977	1857	1829	1858	4212,92114257813	5,12820512820513	-5,12820512820513	-5,49450549450549
7137	1856	1828	1858	4217,80395507813	5,49450549450549	-4,76190476190476	-5,49450549450549
7297	1855	1828	1858	4222,68676757813	5,49450549450549	-4,3956043956044	-5,49450549450549
7457	1857	1830	1860	4227,56958007813	4,76190476190476	-5,12820512820513	-6,22710622710623
7617	1857	1832	1860	4232,45239257813	4,02930402930403	-5,12820512820513	-6,22710622710623
7777	1856	1829	1858	4237,33520507813	5,12820512820513	-4,76190476190476	-5,49450549450549
7937	1856	1825	1857	4242,21801757813	6,59340659340659	-4,76190476190476	-5,12820512820513
8097	1855	1828	1859	4247,10083007813	5,49450549450549	-4,3956043956044	-5,86080586080586
8257	1858	1830	1860	4251,98364257813	4,76190476190476	-5,49450549450549	-6,22710622710623
8417	1857	1830	1859	4256,86645507813	4,76190476190476	-5,12820512820513	-5,86080586080586
8577	1856	1828	1858	4261,74926757813	5,49450549450549	-4,76190476190476	-5,49450549450549
8737	1857	1829	1859	4266,63208007813	5,12820512820513	-5,12820512820513	-5,86080586080586
8897	1855	1828	1859	4271,51489257813	5,49450549450549	-4,3956043956044	-5,86080586080586
9057	1858	1829	1856	4276,39770507813	5,12820512820513	-5,49450549450549	-4,76190476190476
9217	1858	1830	1860	4281,28051757813	4,76190476190476	-5,49450549450549	-6,22710622710623
9377	1856	1829	1859	4286,16333007813	5,12820512820513	-4,76190476190476	-5,86080586080586
9537	1857	1829	1859	4291,04614257813	5,12820512820513	-5,12820512820513	-5,86080586080586
9697	1859	1831	1860	4295,92895507813	4,3956043956044	-5,86080586080586	-6,22710622710623
9857	1858	1828	1856	4300,81176757813	5,49450549450549	-5,49450549450549	-4,76190476190476
10017	1856	1828	1858	4305,69458007813	5,49450549450549	-4,76190476190476	-5,49450549450549
10177	1856	1828	1857	4310,57739257813	5,49450549450549	-4,76190476190476	-5,12820512820513
10337	1856	1827	1858	4315,46020507813	5,86080586080586	-4,76190476190476	-5,49450549450549
10497	1857	1830	1858	4320,34301757813	4,76190476190476	-5,12820512820513	-5,49450549450549
10657	1855	1829	1858	4325,22583007813	5,12820512820513	-4,3956043956044	-5,49450549450549
10817	1858	1830	1859	4330,10864257813	4,76190476190476	-5,49450549450549	-5,86080586080586
10977	1858	1830	1859	4334,99145507813	4,76190476190476	-5,49450549450549	-5,86080586080586
11137	1856	1828	1859	4339,87426757813	5,49450549450549	-4,76190476190476	-5,86080586080586
11297	1856	1828	1858	4344,75708007813	5,49450549450549	-4,76190476190476	-5,49450549450549
11457	1856	1828	1857	4349,63989257813	5,49450549450549	-4,76190476190476	-5,12820512820513
11617	1856	1828	1857	4354,52270507813	5,49450549450549	-4,76190476190476	-5,12820512820513
11777	1856	1829	1857	4359,40551757813	5,12820512820513	-4,76190476190476	-5,12820512820513
11937	1856	1828	1857	4364,28833007813	5,49450549450549	-4,76190476190476	-5,12820512820513
12097	1857	1829	1859	4369,17114257813	5,12820512820513	-5,12820512820513	-5,86080586080586
12257	1857	1829	1858	4374,05395507813	5,12820512820513	-5,12820512820513	-5,49450549450549
12417	1857	1828	1860	4378,93676757813	5,49450549450549	-5,12820512820513	-6,22710622710623
12577	1857	1830	1859	4383,81958007813	4,76190476190476	-5,12820512820513	-5,86080586080586
12737	1857	1831	1859	4388,70239257813	4,3956043956044	-5,12820512820513	-5,86080586080586
12897	1856	1829	1858	4393,58520507813	5,12820512820513	-4,76190476190476	-5,49450549450549
13057	1855	1828	1858	4398,46801757813	5,49450549450549	-4,3956043956044	-5,49450549450549
13217	1856	1828	1857	4403,35083007813	5,49450549450549	-4,76190476190476	-5,12820512820513
13377	1856	1829	1859	4408,23364257813	5,12820512820513	-4,76190476190476	-5,86080586080586
13537	1857	1829	1859	4413,11645507813	5,12820512820513	-5,12820512820513	-5,86080586080586
13697	1857	1829	1859	4417,99926757813	5,12820512820513	-5,12820512820513	-5,86080586080586
13857	1856	1828	1858	4422,88208007813	5,49450549450549	-4,76190476190476	-5,49450549450549
14017	1857	1830	1859	4427,76489257813	4,76190476190476	-5,12820512820513	-5,86080586080586
14177	1858	1828	1857	4432,64770507813	5,49450549450549	-5,49450549450549	-5,12820512820513
14337	1857	1830	1860	4437,53051757813	4,76190476190476	-5,12820512820513	-6,22710622710623
14497	1857	1829	1858	4442,41333007813	5,12820512820513	-5,12820512820513	-5,49450549450549
14657	1856	1828	1857	4447,29614257813	5,49450549450549	-4,76190476190476	-5,12820512820513
14817	1858	1831	1861	4452,17895507813	4,3956043956044	-5,49450549450549	-6,59340659340659
14977	1858	1829	1857	4457,06176757813	5,12820512820513	-5,49450549450549	-5,12820512820513
15137	1856	1828	1858	4461,94458007813	5,49450549450549	-4,76190476190476	-5,49450549450549
15297	1856	1828	1858	4466,82739257813	5,49450549450549	-4,76190476190476	-5,49450549450549
15457	1856	1828	1858	4471,71020507813	5,49450549450549	-4,76190476190476	-5,49450549450549
15617	1856	1829	1859	4476,59301757813	5,12820512820513	-4,76190476190476	-5,86080586080586
15777	1856	1828	1857	4481,47583007813	5,49450549450549	-4,76190476190476	-5,12820512820513
15937	1858	1830	1859	4486,35864257813	4,76190476190476	-5,49450549450549	-5,86080586080586
16097	1858	1830	1858	4491,24145507813	4,76190476190476	-5,49450549450549	-5,49450549450549
16257	1856	1830	1859	4496,12426757813	4,76190476190476	-4,76190476190476	-5,86080586080586
16417	1855	1827	1857	4501,00708007813	5,86080586080586	-4,3956043956044	-5,12820512820513
16577	1856	1827	1858	4505,88989257813	5,86080586080586	-4,76190476190476	-5,49450549450549
16737	1856	1828	1857	4510,77270507813	5,49450549450549	-4,76190476190476	-5,12820512820513
16897	1856	1828	1858	4515,65551757813	5,49450549450549	-4,76190476190476	-5,49450549450549
17057	1857	1829	1860	4520,53833007813	5,12820512820513	-5,12820512820513	-6,22710622710623
17217	1857	1830	1859	4525,42114257813	4,76190476190476	-5,12820512820513	-5,86080586080586
17377	1857	1829	1859	4530,30395507813	5,12820512820513	-5,12820512820513	-5,86080586080586
17537	1856	1828	1857	4535,18676757813	5,49450549450549	-4,76190476190476	-5,12820512820513
17697	1858	1830	1859	4540,06958007813	4,76190476190476	-5,49450549450549	-5,86080586080586
17857	1856	1830	1859	4544,95239257813	4,76190476190476	-4,76190476190476	-5,86080586080586
18017	1856	1828	1858	4549,83520507813	5,49450549450549	-4,76190476190476	-5,49450549450549
18177	1856	1829	1858	4554,71801757813	5,12820512820513	-4,76190476190476	-5,49450549450549
18337	1858	1831	1860	4559,60083007813	4,3956043956044	-5,49450549450549	-6,22710622710623
18497	1858	1831	1860	4564,48364257813	4,3956043956044	-5,49450549450549	-6,22710622710623
18657	1858	1829	1860	4569,36645507813	5,12820512820513	-5,49450549450549	-6,22710622710623
18817	1856	1828	1858	4574,24926757813	5,49450549450549	-4,76190476190476	-5,49450549450549
18977	1857	1830	1859	4579,13208007813	4,76190476190476	-5,12820512820513	-5,86080586080586
19137	1856	1828	1858	4584,01489257813	5,49450549450549	-4,76190476190476	-5,49450549450549
19297	1857	1828	1859	4588,89770507813	5,49450549450549	-5,12820512820513	-5,86080586080586
19457	1857	1829	1859	4593,78051757813	5,12820512820513	-5,12820512820513	-5,86080586080586
19617	1857	1829	1859	4598,66333007813	5,12820512820513	-5,12820512820513	-5,86080586080586
19777	1857	1829	1859	4603,54614257813	5,12820512820513	-5,12820512820513	-5,86080586080586
19937	1859	1831	1860	4608,42895507813	4,3956043956044	-5,86080586080586	-6,22710622710623
20097	1858	1830	1858	4613,31176757813	4,76190476190476	-5,49450549450549	-5,49450549450549
20257	1856	1828	1858	4618,19458007813	5,49450549450549	-4,76190476190476	-5,49450549450549
20417	1857	1829	1858	4623,07739257813	5,12820512820513	-5,12820512820513	-5,49450549450549
20577	1857	1828	1858	4627,96020507813	5,49450549450549	-5,12820512820513	-5,49450549450549
20737	1856	1829	1858	4632,84301757813	5,12820512820513	-4,76190476190476	-5,49450549450549
20897	1856	1828	1858	4637,72583007813	5,49450549450549	-4,76190476190476	-5,49450549450549
21057	1858	1829	1859	4642,60864257813	5,12820512820513	-5,49450549450549	-5,86080586080586
21217	1857	1830	1859	4647,49145507813	4,76190476190476	-5,12820512820513	-5,86080586080586
21377	1855	1830	1859	4652,37426757813	4,76190476190476	-4,3956043956044	-5,86080586080586
21537	1857	1829	1857	4657,25708007813	5,12820512820513	-5,12820512820513	-5,12820512820513
21697	1856	1828	1857	4662,13989257813	5,49450549450549	-4,76190476190476	-5,12820512820513
21857	1856	1828	1858	4667,02270507813	5,49450549450549	-4,76190476190476	-5,49450549450549
22017	1856	1828	1858	4671,90551757813	5,49450549450549	-4,76190476190476	-5,49450549450549
22177	1856	1829	1857	4676,78833007813	5,12820512820513	-4,76190476190476	-5,12820512820513
22337	1857	1829	1859	4681,67114257813	5,12820512820513	-5,12820512820513	-5,86080586080586
22497	1856	1829	1858	4686,55395507813	5,12820512820513	-4,76190476190476	-5,49450549450549
22657	1858	1829	1859	4691,43676757813	5,12820512820513	-5,49450549450549	-5,86080586080586
22817	1858	1830	1859	4696,31958007813	4,76190476190476	-5,49450549450549	-5,86080586080586
22977	1857	1829	1859	4701,20239257813	5,12820512820513	-5,12820512820513	-5,86080586080586
23137	1856	1828	1857	4706,08520507813	5,49450549450549	-4,76190476190476	-5,12820512820513
23297	1856	1828	1858	4710,96801757813	5,49450549450549	-4,76190476190476	-5,49450549450549
23457	1856	1828	1858	4715,85083007813	5,49450549450549	-4,76190476190476	-5,49450549450549
23617	1858	1831	1861	4720,73364257813	4,3956043956044	-5,49450549450549	-6,59340659340659
23777	1856	1830	1860	4725,61645507813	4,76190476190476	-4,76190476190476	-6,22710622710623
23937	1857	1830	1859	4730,49926757813	4,76190476190476	-5,12820512820513	-5,86080586080586
24097	1857	1828	1858	4735,38208007813	5,49450549450549	-5,12820512820513	-5,49450549450549
24257	1838	1830	1856	4740,26489257813	4,76190476190476	1,83150183150183	-4,76190476190476
24417	1831	1832	1857	4745,14770507813	4,02930402930403	4,3956043956044	-5,12820512820513
24577	1840	1835	1862	4750,03051757813	2,93040293040293	1,0989010989011	-6,95970695970696
24737	1806	1834	1860	4754,91333007813	3,2967032967033	13,5531135531136	-6,22710622710623
24897	1777	1853	1860	4759,79614257813	-3,66300366300366	24,1758241758242	-6,22710622710623
25057	1755	1880	1863	4764,67895507813	-13,5531135531136	32,2344322344322	-7,32600732600733
25217	1757	1904	1863	4769,56176757813	-22,3443223443223	31,5018315018315	-7,32600732600733
25377	1769	1927	1864	4774,44458007813	-30,7692307692308	27,1062271062271	-7,69230769230769
25537	1789	1954	1865	4779,32739257813	-40,6593406593407	19,7802197802198	-8,05860805860806
25697	1790	1971	1867	4784,21020507813	-46,8864468864469	19,4139194139194	-8,79120879120879
25857	1770	1982	1870	4789,09301757813	-50,9157509157509	26,7399267399267	-9,89010989010989
26017	1744	1985	1870	4793,97583007813	-52,014652014652	36,2637362637363	-9,89010989010989
26177	1714	1989	1872	4798,85864257813	-53,4798534798535	47,2527472527473	-10,6227106227106
26337	1690	1993	1874	4803,74145507813	-54,9450549450549	56,0439560439561	-11,3553113553114
26497	1643	1987	1870	4808,62426757813	-52,7472527472528	73,2600732600733	-9,89010989010989
26657	1604	1959	1863	4813,50708007813	-42,4908424908425	87,5457875457875	-7,32600732600733
26817	1560	1922	1864	4818,38989257813	-28,9377289377289	103,663003663004	-7,69230769230769
26977	1542	1891	1836	4823,27270507813	-17,5824175824176	110,25641025641	2,56410256410256
27137	1574	1869	1782	4828,15551757813	-9,52380952380953	98,5347985347985	22,3443223443223
27297	1637	1855	1725	4833,03833007813	-4,3956043956044	75,4578754578755	43,2234432234432
27457	1746	1840	1689	4837,92114257813	1,0989010989011	35,5311355311355	56,4102564102564
27617	1816	1816	1684	4842,80395507813	9,89010989010989	9,89010989010989	58,2417582417582
27777	1850	1784	1701	4847,68676757813	21,6117216117216	-2,56410256410256	52,014652014652
27937	1855	1760	1721	4852,56958007813	30,4029304029304	-4,3956043956044	44,6886446886447
28097	1842	1751	1729	4857,45239257813	33,6996336996337	0,366300366300366	41,7582417582418
28257	1812	1756	1721	4862,33520507813	31,8681318681319	11,3553113553114	44,6886446886447
28417	1777	1771	1705	4867,21801757813	26,3736263736264	24,1758241758242	50,5494505494506
28577	1745	1793	1684	4872,10083007813	18,3150183150183	35,8974358974359	58,2417582417582
28737	1730	1817	1662	4876,98364257813	9,52380952380953	41,3919413919414	66,3003663003663
28897	1726	1846	1644	4881,86645507813	-1,0989010989011	42,8571428571429	72,8937728937729
29057	1734	1872	1639	4886,74926757813	-10,6227106227106	39,9267399267399	74,7252747252747
29217	1756	1887	1645	4891,63208007813	-16,1172161172161	31,8681318681319	72,5274725274725
29377	1790	1893	1649	4896,51489257813	-18,3150183150183	19,4139194139194	71,0622710622711
29537	1832	1897	1654	4901,39770507813	-19,7802197802198	4,02930402930403	69,2307692307692
29697	1828	1819	1433	4906,28051757813	8,79120879120879	5,49450549450549	150,18315018315
29857	1850	1822	984	4911,16333007813	7,69230769230769	-2,56410256410256	314,652014652015
30017	1821	1804	723	4916,04614257813	14,2857142857143	8,05860805860806	410,25641025641
30177	1854	1799	377	4920,92895507813	16,1172161172161	-4,02930402930403	536,996336996337
30337	1898	1803	81	4925,81176757813	14,6520146520147	-20,1465201465202	645,421245421245
30497	1969	1838	13	4930,69458007813	1,83150183150183	-46,1538461538462	670,32967032967
30657	2064	1883	13	4935,57739257813	-14,6520146520147	-80,952380952381	670,32967032967
30817	2112	1927	13	4940,46020507813	-30,7692307692308	-98,5347985347985	670,32967032967
30977	2109	1972	13	4945,34301757813	-47,2527472527473	-97,4358974358974	670,32967032967
31137	2077	2016	13	4950,22583007813	-63,3699633699634	-85,7142857142857	670,32967032967
31297	2060	2065	13	4955,10864257813	-81,3186813186813	-79,4871794871795	670,32967032967
31457	2052	2102	13	4959,99145507813	-94,8717948717949	-76,5567765567766	670,32967032967
31617	2088	2124	13	4964,87426757813	-102,930402930403	-89,7435897435898	670,32967032967
31777	2168	2127	13	4969,75708007813	-104,029304029304	-119,047619047619	670,32967032967
31937	2272	2095	13	4974,63989257813	-92,3076923076923	-157,142857142857	670,32967032967
32097	2299	2008	13	4979,52270507813	-60,4395604395604	-167,032967032967	670,32967032967
32257	2300	1882	13	4984,40551757813	-14,2857142857143	-167,399267399267	670,32967032967
32417	2277	1759	13	4989,28833007813	30,7692307692308	-158,974358974359	670,32967032967
32577	2290	1681	13	4994,17114257813	59,3406593406593	-163,736263736264	670,32967032967
32737	2241	1671	105	4999,05395507813	63,003663003663	-145,787545787546	636,630036630037
32897	2192	1716	377	5003,93676757813	46,5201465201465	-127,838827838828	536,996336996337
33057	2148	1788	577	5008,81958007813	20,1465201465202	-111,721611721612	463,736263736264
33217	2102	1843	737	5013,70239257813	0	-94,8717948717949	405,128205128205
33377	2039	1883	870	5018,58520507813	-14,6520146520147	-71,7948717948718	356,410256410256
33537	1987	1903	979	5023,46801757813	-21,978021978022	-52,7472527472528	316,483516483517
33697	1945	1903	1056	5028,35083007813	-21,978021978022	-37,3626373626374	288,278388278388
33857	1937	1899	1105	5033,23364257813	-20,5128205128205	-34,4322344322344	270,32967032967
34017	1950	1878	1145	5038,11645507813	-12,8205128205128	-39,1941391941392	255,677655677656
34177	1960	1840	1182	5042,99926757813	1,0989010989011	-42,8571428571429	242,124542124542
34337	1954	1796	1211	5047,88208007813	17,2161172161172	-40,6593406593407	231,501831501832
34497	1940	1754	1231	5052,76489257813	32,6007326007326	-35,5311355311355	224,175824175824
34657	1891	1784	1197	5057,64770507813	21,6117216117216	-17,5824175824176	236,630036630037
34817	1856	1833	1163	5062,53051757813	3,66300366300366	-4,76190476190476	249,084249084249
34977	1831	1861	1126	5067,41333007813	-6,59340659340659	4,3956043956044	262,637362637363
35137	1817	1858	1091	5072,29614257813	-5,49450549450549	9,52380952380953	275,457875457876
35297	1793	1851	1052	5077,17895507813	-2,93040293040293	18,3150183150183	289,74358974359
35457	1768	1869	996	5082,06176757813	-9,52380952380953	27,4725274725275	310,25641025641
35617	1766	1902	964	5086,94458007813	-21,6117216117216	28,2051282051282	321,978021978022
35777	1800	1937	952	5091,82739257813	-34,4322344322344	15,7509157509158	326,373626373626
35937	1860	1958	954	5096,71020507813	-42,1245421245421	-6,22710622710623	325,641025641026
36097	1924	1967	978	5101,59301757813	-45,4212454212454	-29,6703296703297	316,849816849817
36257	1970	1943	1065	5106,47583007813	-36,6300366300366	-46,5201465201465	284,981684981685
36417	2007	1914	1161	5111,35864257813	-26,007326007326	-60,0732600732601	249,81684981685
36577	2018	1931	1243	5116,24145507813	-32,2344322344322	-64,1025641025641	219,78021978022
36737	2022	1967	1313	5121,12426757813	-45,4212454212454	-65,5677655677656	194,139194139194
36897	2018	1990	1364	5126,00708007813	-53,8461538461539	-64,1025641025641	175,457875457875
37057	1994	1991	1385	5130,88989257813	-54,2124542124542	-55,3113553113553	167,765567765568
37217	1942	1970	1371	5135,77270507813	-46,5201465201465	-36,2637362637363	172,893772893773
37377	1895	1946	1347	5140,65551757813	-37,7289377289377	-19,0476190476191	181,684981684982
37537	1841	1928	1339	5145,53833007813	-31,1355311355311	0,732600732600733	184,615384615385
37697	1799	1912	1343	5150,42114257813	-25,2747252747253	16,1172161172161	183,150183150183
37857	1782	1890	1344	5155,30395507813	-17,2161172161172	22,3443223443223	182,783882783883
38017	1784	1833	1335	5160,18676757813	3,66300366300366	21,6117216117216	186,080586080586
38177	1817	1765	1298	5165,06958007813	28,5714285714286	9,52380952380953	199,6336996337
38337	1858	1677	1241	5169,95239257813	60,8058608058608	-5,49450549450549	220,512820512821
38497	1893	1596	1175	5174,83520507813	90,4761904761905	-18,3150183150183	244,688644688645
38657	1925	1537	1121	5179,71801757813	112,087912087912	-30,03663003663	264,468864468864
38817	1942	1515	1073	5184,60083007813	120,14652014652	-36,2637362637363	282,051282051282
38977	1977	1532	1055	5189,48364257813	113,919413919414	-49,0842490842491	288,644688644689
39137	2045	1577	1053	5194,36645507813	97,4358974358974	-73,992673992674	289,377289377289
39297	2144	1629	1060	5199,24926757813	78,3882783882784	-110,25641025641	286,813186813187
39457	2260	1671	1088	5204,13208007813	63,003663003663	-152,747252747253	276,556776556777
39617	2325	1677	1135	5209,01489257813	60,8058608058608	-176,556776556777	259,340659340659
39777	2334	1653	1211	5213,89770507813	69,5970695970696	-179,85347985348	231,501831501832
39937	2268	1641	1323	5218,78051757813	73,992673992674	-155,677655677656	190,47619047619
40097	2168	1674	1462	5223,66333007813	61,9047619047619	-119,047619047619	139,56043956044
40257	2098	1739	1594	5228,54614257813	38,0952380952381	-93,4065934065934	91,2087912087912
40417	2046	1803	1694	5233,42895507813	14,6520146520147	-74,3589743589744	54,5787545787546
40577	1981	1848	1730	5238,31176757813	-1,83150183150183	-50,5494505494506	41,3919413919414
40737	1904	1880	1725	5243,19458007813	-13,5531135531136	-22,3443223443223	43,2234432234432
40897	1831	1906	1721	5248,07739257813	-23,0769230769231	4,3956043956044	44,6886446886447
41057	1743	1918	1725	5252,96020507813	-27,4725274725275	36,6300366300366	43,2234432234432
41217	1622	1922	1723	5257,84301757813	-28,9377289377289	80,952380952381	43,956043956044
41377	1534	1941	1670	5262,72583007813	-35,8974358974359	113,186813186813	63,3699633699634
41537	1498	1975	1628	5267,60864257813	-48,3516483516484	126,373626373626	78,7545787545788
41697	1500	2006	1597	5272,49145507813	-59,7069597069597	125,641025641026	90,1098901098901
41857	1534	2023	1576	5277,37426757813	-65,9340659340659	113,186813186813	97,8021978021978
42017	1597	2038	1570	5282,25708007813	-71,4285714285714	90,1098901098901	100
42177	1671	2041	1584	5287,13989257813	-72,5274725274725	63,003663003663	94,8717948717949
42337	1755	2043	1601	5292,02270507813	-73,2600732600733	32,2344322344322	88,6446886446887
42497	1840	2041	1614	5296,90551757813	-72,5274725274725	1,0989010989011	83,8827838827839
42657	1880	2002	1636	5301,78833007813	-58,2417582417582	-13,5531135531136	75,8241758241758
42817	1865	1930	1681	5306,67114257813	-31,8681318681319	-8,05860805860806	59,3406593406593
42977	1833	1879	1722	5311,55395507813	-13,1868131868132	3,66300366300366	44,3223443223443
43137	1774	1883	1722	5316,43676757813	-14,6520146520147	25,2747252747253	44,3223443223443
43297	1792	1898	1555	5321,31958007813	-20,1465201465202	18,6813186813187	105,494505494506
43457	1797	1923	1571	5326,20239257813	-29,3040293040293	16,8498168498169	99,6336996336996
43617	1779	1924	1575	5331,08520507813	-29,6703296703297	23,4432234432234	98,1684981684982
43777	1755	1911	1576	5335,96801757813	-24,9084249084249	32,2344322344322	97,8021978021978
43937	1741	1866	1564	5340,85083007813	-8,42490842490843	37,3626373626374	102,197802197802
44097	1731	1855	1557	5345,73364257813	-4,3956043956044	41,025641025641	104,761904761905
44257	1721	1870	1547	5350,61645507813	-9,89010989010989	44,6886446886447	108,424908424908
44417	1744	1893	1519	5355,49926757813	-18,3150183150183	36,2637362637363	118,681318681319
44577	1752	1924	1507	5360,38208007813	-29,6703296703297	33,3333333333333	123,076923076923
44737	1754	1931	1515	5365,26489257813	-32,2344322344322	32,6007326007326	120,14652014652
44897	1770	1920	1527	5370,14770507813	-28,2051282051282	26,7399267399267	115,750915750916
45057	1788	1902	1542	5375,03051757813	-21,6117216117216	20,1465201465202	110,25641025641
45217	1786	1889	1558	5379,91333007813	-16,8498168498169	20,8791208791209	104,395604395604
45377	1774	1874	1576	5384,79614257813	-11,3553113553114	25,2747252747253	97,8021978021978
45537	1776	1870	1591	5389,67895507813	-9,89010989010989	24,5421245421245	92,3076923076923
45697	1805	1878	1597	5394,56176757813	-12,8205128205128	13,9194139194139	90,1098901098901
45857	1841	1895	1609	5399,44458007813	-19,0476190476191	0,732600732600733	85,7142857142857
46017	1852	1908	1629	5404,32739257813	-23,8095238095238	-3,2967032967033	78,3882783882784
46177	1860	1911	1635	5409,21020507813	-24,9084249084249	-6,22710622710623	76,1904761904762
46337	1859	1903	1634	5414,09301757813	-21,978021978022	-5,86080586080586	76,5567765567766
46497	1865	1885	1627	5418,97583007813	-15,3846153846154	-8,05860805860806	79,1208791208791
46657	1863	1860	1634	5423,85864257813	-6,22710622710623	-7,32600732600733	76,5567765567766
46817	1871	1843	1633	5428,74145507813	0	-10,2564102564103	76,9230769230769
46977	1871	1829	1623	5433,62426757813	5,12820512820513	-10,2564102564103	80,5860805860806
47137	1852	1823	1609	5438,50708007813	7,32600732600733	-3,2967032967033	85,7142857142857
47297	1813	1842	1584	5443,38989257813	0,366300366300366	10,989010989011	94,8717948717949
47457	1820	1825	1572	5448,27270507813	6,59340659340659	8,42490842490843	99,2673992673993
47617	1804	1805	1567	5453,15551757813	13,9194139194139	14,2857142857143	101,098901098901
47777	1777	1797	1553	5458,03833007813	16,8498168498169	24,1758241758242	106,227106227106
47937	1750	1779	1534	5462,92114257813	23,4432234432234	34,0659340659341	113,186813186813
48097	1731	1766	1509	5467,80395507813	28,2051282051282	41,025641025641	122,344322344322
48257	1712	1764	1484	5472,68676757813	28,9377289377289	47,985347985348	131,501831501832
48417	1702	1770	1467	5477,56958007813	26,7399267399267	51,6483516483517	137,728937728938
48577	1721	1771	1456	5482,45239257813	26,3736263736264	44,6886446886447	141,758241758242
48737	1754	1773	1456	5487,33520507813	25,6410256410256	32,6007326007326	141,758241758242
48897	1793	1780	1467	5492,21801757813	23,0769230769231	18,3150183150183	137,728937728938
49057	1821	1798	1489	5497,10083007813	16,4835164835165	8,05860805860806	129,67032967033
49217	1832	1821	1512	5501,98364257813	8,05860805860806	4,02930402930403	121,245421245421
49377	1842	1826	1544	5506,86645507813	6,22710622710623	0,366300366300366	109,52380952381
49537	1854	1833	1590	5511,74926757813	3,66300366300366	-4,02930402930403	92,6739926739927
49697	1872	1827	1643	5516,63208007813	5,86080586080586	-10,6227106227106	73,2600732600733
49857	1876	1803	1677	5521,51489257813	14,6520146520147	-12,0879120879121	60,8058608058608
50017	1810	1795	1720	5526,39770507813	17,5824175824176	12,0879120879121	45,0549450549451
50177	1767	1801	1759	5531,28051757813	15,3846153846154	27,8388278388278	30,7692307692308
50337	1756	1816	1797	5536,16333007813	9,89010989010989	31,8681318681319	16,8498168498169
50497	1791	1801	1827	5541,04614257813	15,3846153846154	19,0476190476191	5,86080586080586
50657	1765	1799	1851	5545,92895507813	16,1172161172161	28,5714285714286	-2,93040293040293
50817	1755	1795	1866	5550,81176757813	17,5824175824176	32,2344322344322	-8,42490842490843
50977	1767	1773	1867	5555,69458007813	25,6410256410256	27,8388278388278	-8,79120879120879
51137	1743	1781	1872	5560,57739257813	22,7106227106227	36,6300366300366	-10,6227106227106
51297	1776	1787	1856	5565,46020507813	20,5128205128205	24,5421245421245	-4,76190476190476
51457	1820	1787	1851	5570,34301757813	20,5128205128205	8,42490842490843	-2,93040293040293
51617	1830	1790	1851	5575,22583007813	19,4139194139194	4,76190476190476	-2,93040293040293
51777	1788	1803	1860	5580,10864257813	14,6520146520147	20,1465201465202	-6,22710622710623
51937	1775	1793	1854	5584,99145507813	18,3150183150183	24,9084249084249	-4,02930402930403
52097	1758	1787	1859	5589,87426757813	20,5128205128205	31,1355311355311	-5,86080586080586
52257	1770	1786	1853	5594,75708007813	20,8791208791209	26,7399267399267	-3,66300366300366
52417	1785	1784	1847	5599,63989257813	21,6117216117216	21,2454212454212	-1,46520146520147
52577	1792	1793	1846	5604,52270507813	18,3150183150183	18,6813186813187	-1,0989010989011
52737	1801	1804	1851	5609,40551757813	14,2857142857143	15,3846153846154	-2,93040293040293
52897	1804	1817	1860	5614,28833007813	9,52380952380953	14,2857142857143	-6,22710622710623
53057	1787	1836	1869	5619,17114257813	2,56410256410256	20,5128205128205	-9,52380952380953
53217	1811	1830	1870	5624,05395507813	4,76190476190476	11,7216117216117	-9,89010989010989
53377	1828	1814	1884	5628,93676757813	10,6227106227106	5,49450549450549	-15,018315018315
53537	1804	1825	1892	5633,81958007813	6,59340659340659	14,2857142857143	-17,9487179487179
53697	1766	1831	1888	5638,70239257813	4,3956043956044	28,2051282051282	-16,4835164835165
53857	1755	1819	1878	5643,58520507813	8,79120879120879	32,2344322344322	-12,8205128205128
54017	1740	1827	1872	5648,46801757813	5,86080586080586	37,7289377289377	-10,6227106227106
54177	1757	1822	1854	5653,35083007813	7,69230769230769	31,5018315018315	-4,02930402930403
54337	1774	1835	1848	5658,23364257813	2,93040293040293	25,2747252747253	-1,83150183150183
54497	1841	1814	1825	5663,11645507813	10,6227106227106	0,732600732600733	6,59340659340659
54657	1818	1813	1809	5667,99926757813	10,989010989011	9,15750915750916	12,4542124542125
54817	1849	1798	1799	5672,88208007813	16,4835164835165	-2,1978021978022	16,1172161172161
54977	1836	1783	1789	5677,76489257813	21,978021978022	2,56410256410256	19,7802197802198
55137	1818	1785	1786	5682,64770507813	21,2454212454212	9,15750915750916	20,8791208791209
55297	1816	1801	1780	5687,53051757813	15,3846153846154	9,89010989010989	23,0769230769231
55457	1830	1807	1773	5692,41333007813	13,1868131868132	4,76190476190476	25,6410256410256
55617	1847	1809	1766	5697,29614257813	12,4542124542125	-1,46520146520147	28,2051282051282
55777	1866	1814	1756	5702,17895507813	10,6227106227106	-8,42490842490843	31,8681318681319
55937	1880	1815	1740	5707,06176757813	10,2564102564103	-13,5531135531136	37,7289377289377
56097	1892	1815	1728	5711,94458007813	10,2564102564103	-17,9487179487179	42,1245421245421
56257	1895	1819	1721	5716,82739257813	8,79120879120879	-19,0476190476191	44,6886446886447
56417	1904	1826	1719	5721,71020507813	6,22710622710623	-22,3443223443223	45,4212454212454
56577	1889	1839	1719	5726,59301757813	1,46520146520147	-16,8498168498169	45,4212454212454
56737	1891	1849	1725	5731,47583007813	-2,1978021978022	-17,5824175824176	43,2234432234432
56897	1902	1868	1737	5736,35864257813	-9,15750915750916	-21,6117216117216	38,8278388278388
57057	1905	1866	1744	5741,24145507813	-8,42490842490843	-22,7106227106227	36,2637362637363
57217	1896	1841	1748	5746,12426757813	0,732600732600733	-19,4139194139194	34,7985347985348
57377	1884	1829	1751	5751,00708007813	5,12820512820513	-15,018315018315	33,6996336996337
57537	1871	1821	1754	5755,88989257813	8,05860805860806	-10,2564102564103	32,6007326007326
57697	1842	1823	1750	5760,77270507813	7,32600732600733	0,366300366300366	34,0659340659341
57857	1814	1828	1745	5765,65551757813	5,49450549450549	10,6227106227106	35,8974358974359
58017	1805	1830	1735	5770,53833007813	4,76190476190476	13,9194139194139	39,5604395604396
58177	1803	1830	1715	5775,42114257813	4,76190476190476	14,6520146520147	46,8864468864469
58337	1886	1830	1703	5780,30395507813	4,76190476190476	-15,7509157509158	51,2820512820513
58497	1853	1824	1690	5785,18676757813	6,95970695970696	-3,66300366300366	56,0439560439561
58657	1843	1813	1678	5790,06958007813	10,989010989011	0	60,4395604395604
58817	1850	1816	1674	5794,95239257813	9,89010989010989	-2,56410256410256	61,9047619047619
58977	1864	1830	1667	5799,83520507813	4,76190476190476	-7,69230769230769	64,4688644688645
59137	1867	1837	1664	5804,71801757813	2,1978021978022	-8,79120879120879	65,5677655677656
59297	1868	1838	1661	5809,60083007813	1,83150183150183	-9,15750915750916	66,6666666666667
59457	1882	1848	1666	5814,48364257813	-1,83150183150183	-14,2857142857143	64,8351648351648
59617	1902	1861	1674	5819,36645507813	-6,59340659340659	-21,6117216117216	61,9047619047619
59777	1900	1866	1683	5824,24926757813	-8,42490842490843	-20,8791208791209	58,6080586080586
59937	1887	1855	1693	5829,13208007813	-4,3956043956044	-16,1172161172161	54,9450549450549
60097	1881	1848	1703	5834,01489257813	-1,83150183150183	-13,9194139194139	51,2820512820513
60257	1889	1849	1717	5838,89770507813	-2,1978021978022	-16,8498168498169	46,1538461538462
60417	1888	1855	1724	5843,78051757813	-4,3956043956044	-16,4835164835165	43,5897435897436
60577	1891	1862	1731	5848,66333007813	-6,95970695970696	-17,5824175824176	41,025641025641
60737	1892	1860	1737	5853,54614257813	-6,22710622710623	-17,9487179487179	38,8278388278388
60897	1888	1861	1738	5858,42895507813	-6,59340659340659	-16,4835164835165	38,4615384615385
61057	1885	1864	1737	5863,31176757813	-7,69230769230769	-15,3846153846154	38,8278388278388
61217	1865	1848	1737	5868,19458007813	-1,83150183150183	-8,05860805860806	38,8278388278388
61377	1851	1830	1731	5873,07739257813	4,76190476190476	-2,93040293040293	41,025641025641
61537	1856	1825	1722	5877,96020507813	6,59340659340659	-4,76190476190476	44,3223443223443
61697	1856	1827	1716	5882,84301757813	5,86080586080586	-4,76190476190476	46,5201465201465
61857	1859	1831	1705	5887,72583007813	4,3956043956044	-5,86080586080586	50,5494505494506
62017	1864	1835	1698	5892,60864257813	2,93040293040293	-7,69230769230769	53,1135531135531
62177	1851	1821	1687	5897,49145507813	8,05860805860806	-2,93040293040293	57,1428571428571
62337	1836	1804	1675	5902,37426757813	14,2857142857143	2,56410256410256	61,5384615384615
62497	1851	1795	1661	5907,25708007813	17,5824175824176	-2,93040293040293	66,6666666666667
62657	1840	1797	1654	5912,13989257813	16,8498168498169	1,0989010989011	69,2307692307692
62817	1857	1800	1649	5917,02270507813	15,7509157509158	-5,12820512820513	71,0622710622711
62977	1871	1817	1653	5921,90551757813	9,52380952380953	-10,2564102564103	69,5970695970696
63137	1880	1840	1657	5926,78833007813	1,0989010989011	-13,5531135531136	68,1318681318681
63297	1880	1833	1660	5931,67114257813	3,66300366300366	-13,5531135531136	67,032967032967
63457	1865	1822	1661	5936,55395507813	7,69230769230769	-8,05860805860806	66,6666666666667
63617	1866	1825	1666	5941,43676757813	6,59340659340659	-8,42490842490843	64,8351648351648
63777	1860	1841	1671	5946,31958007813	0,732600732600733	-6,22710622710623	63,003663003663
63937	1855	1855	1672	5951,20239257813	-4,3956043956044	-4,3956043956044	62,6373626373626
64097	1939	1861	1733	5956,08520507813	-6,59340659340659	-35,1648351648352	40,2930402930403
64257	1943	1940	1829	5960,96801757813	-35,5311355311355	-36,6300366300366	5,12820512820513
64417	1922	1878	1836	5965,85083007813	-12,8205128205128	-28,9377289377289	2,56410256410256
64577	1859	1836	1858	5970,73364257813	2,56410256410256	-5,86080586080586	-5,49450549450549
64737	1840	1829	1863	5975,61645507813	5,12820512820513	1,0989010989011	-7,32600732600733
64897	1848	1831	1860	5980,49926757813	4,3956043956044	-1,83150183150183	-6,22710622710623
65057	1868	1828	1856	5985,38208007813	5,49450549450549	-9,15750915750916	-4,76190476190476
65217	1862	1817	1856	5990,26489257813	9,52380952380953	-6,95970695970696	-4,76190476190476
65377	1849	1806	1860	5995,14770507813	13,5531135531136	-2,1978021978022	-6,22710622710623
2	1846	1794	1860	6000,06103515625	17,9487179487179	-1,0989010989011	-6,22710622710623
161	1841	1788	1860	6004,91333007813	20,1465201465202	0,732600732600733	-6,22710622710623
321	1850	1797	1860	6009,79614257813	16,8498168498169	-2,56410256410256	-6,22710622710623
481	1870	1806	1857	6014,67895507813	13,5531135531136	-9,89010989010989	-5,12820512820513
641	1883	1811	1857	6019,56176757813	11,7216117216117	-14,6520146520147	-5,12820512820513
801	1879	1815	1853	6024,44458007813	10,2564102564103	-13,1868131868132	-3,66300366300366
961	1875	1803	1853	6029,32739257813	14,6520146520147	-11,7216117216117	-3,66300366300366
1121	1872	1803	1855	6034,21020507813	14,6520146520147	-10,6227106227106	-4,3956043956044
1281	1876	1820	1855	6039,09301757813	8,42490842490843	-12,0879120879121	-4,3956043956044
1441	1877	1828	1854	6043,97583007813	5,49450549450549	-12,4542124542125	-4,02930402930403
1601	1876	1829	1857	6048,85864257813	5,12820512820513	-12,0879120879121	-5,12820512820513
1761	1871	1831	1857	6053,74145507813	4,3956043956044	-10,2564102564103	-5,12820512820513
1921	1864	1827	1857	6058,62426757813	5,86080586080586	-7,69230769230769	-5,12820512820513
2081	1857	1828	1858	6063,50708007813	5,49450549450549	-5,12820512820513	-5,49450549450549
2241	1855	1828	1857	6068,38989257813	5,49450549450549	-4,3956043956044	-5,12820512820513
2401	1855	1827	1858	6073,27270507813	5,86080586080586	-4,3956043956044	-5,49450549450549
2561	1856	1827	1857	6078,15551757813	5,86080586080586	-4,76190476190476	-5,12820512820513
2721	1857	1827	1857	6083,03833007813	5,86080586080586	-5,12820512820513	-5,12820512820513
2881	1860	1827	1858	6087,92114257813	5,86080586080586	-6,22710622710623	-5,49450549450549
3041	1861	1826	1858	6092,80395507813	6,22710622710623	-6,59340659340659	-5,49450549450549
3201	1865	1823	1856	6097,68676757813	7,32600732600733	-8,05860805860806	-4,76190476190476
3361	1867	1821	1859	6102,56958007813	8,05860805860806	-8,79120879120879	-5,86080586080586
3521	1866	1802	1858	6107,45239257813	15,018315018315	-8,42490842490843	-5,49450549450549
3681	1863	1768	1858	6112,33520507813	27,4725274725275	-7,32600732600733	-5,49450549450549
3841	1853	1774	1857	6117,21801757813	25,2747252747253	-3,66300366300366	-5,12820512820513
4001	1860	1809	1860	6122,10083007813	12,4542124542125	-6,22710622710623	-6,22710622710623
4161	1874	1833	1860	6126,98364257813	3,66300366300366	-11,3553113553114	-6,22710622710623
4321	1880	1831	1859	6131,86645507813	4,3956043956044	-13,5531135531136	-5,86080586080586
4481	1880	1827	1859	6136,74926757813	5,86080586080586	-13,5531135531136	-5,86080586080586
4641	1886	1827	1859	6141,63208007813	5,86080586080586	-15,7509157509158	-5,86080586080586
4801	1899	1828	1859	6146,51489257813	5,49450549450549	-20,5128205128205	-5,86080586080586
4961	1898	1832	1860	6151,39770507813	4,02930402930403	-20,1465201465202	-6,22710622710623
5121	1894	1834	1860	6156,28051757813	3,2967032967033	-18,6813186813187	-6,22710622710623
5281	1879	1828	1859	6161,16333007813	5,49450549450549	-13,1868131868132	-5,86080586080586
5441	1867	1827	1858	6166,04614257813	5,86080586080586	-8,79120879120879	-5,49450549450549
5601	1862	1826	1857	6170,92895507813	6,22710622710623	-6,95970695970696	-5,12820512820513
5761	1859	1829	1859	6175,81176757813	5,12820512820513	-5,86080586080586	-5,86080586080586
5921	1856	1828	1859	6180,69458007813	5,49450549450549	-4,76190476190476	-5,86080586080586
6081	1857	1828	1858	6185,57739257813	5,49450549450549	-5,12820512820513	-5,49450549450549
6241	1861	1826	1859	6190,46020507813	6,22710622710623	-6,59340659340659	-5,86080586080586
6401	1862	1830	1858	6195,34301757813	4,76190476190476	-6,95970695970696	-5,49450549450549
6561	1863	1828	1859	6200,22583007813	5,49450549450549	-7,32600732600733	-5,86080586080586
6721	1863	1830	1859	6205,10864257813	4,76190476190476	-7,32600732600733	-5,86080586080586
6881	1864	1831	1860	6209,99145507813	4,3956043956044	-7,69230769230769	-6,22710622710623
7041	1866	1828	1858	6214,87426757813	5,49450549450549	-8,42490842490843	-5,49450549450549
7201	1870	1829	1858	6219,75708007813	5,12820512820513	-9,89010989010989	-5,49450549450549
7361	1876	1829	1858	6224,63989257813	5,12820512820513	-12,0879120879121	-5,49450549450549
7521	1882	1829	1858	6229,52270507813	5,12820512820513	-14,2857142857143	-5,49450549450549
7681	1889	1828	1858	6234,40551757813	5,49450549450549	-16,8498168498169	-5,49450549450549
7841	1896	1829	1858	6239,28833007813	5,12820512820513	-19,4139194139194	-5,49450549450549
8001	1899	1831	1859	6244,17114257813	4,3956043956044	-20,5128205128205	-5,86080586080586
8161	1899	1831	1861	6249,05395507813	4,3956043956044	-20,5128205128205	-6,59340659340659
8321	1893	1832	1862	6253,93676757813	4,02930402930403	-18,3150183150183	-6,95970695970696
8481	1888	1831	1861	6258,81958007813	4,3956043956044	-16,4835164835165	-6,59340659340659
8641	1882	1830	1860	6263,70239257813	4,76190476190476	-14,2857142857143	-6,22710622710623
8801	1874	1829	1858	6268,58520507813	5,12820512820513	-11,3553113553114	-5,49450549450549
8961	1865	1828	1858	6273,46801757813	5,49450549450549	-8,05860805860806	-5,49450549450549
9121	1856	1828	1858	6278,35083007813	5,49450549450549	-4,76190476190476	-5,49450549450549
9281	1850	1829	1859	6283,23364257813	5,12820512820513	-2,56410256410256	-5,86080586080586
9441	1846	1828	1859	6288,11645507813	5,49450549450549	-1,0989010989011	-5,86080586080586
9601	1846	1827	1859	6292,99926757813	5,86080586080586	-1,0989010989011	-5,86080586080586
9761	1853	1827	1858	6297,88208007813	5,86080586080586	-3,66300366300366	-5,49450549450549
9921	1861	1830	1859	6302,76489257813	4,76190476190476	-6,59340659340659	-5,86080586080586
10081	1863	1830	1860	6307,64770507813	4,76190476190476	-7,32600732600733	-6,22710622710623
10241	1863	1829	1859	6312,53051757813	5,12820512820513	-7,32600732600733	-5,86080586080586
10401	1863	1831	1861	6317,41333007813	4,3956043956044	-7,32600732600733	-6,59340659340659
10561	1861	1829	1860	6322,29614257813	5,12820512820513	-6,59340659340659	-6,22710622710623
10721	1860	1830	1859	6327,17895507813	4,76190476190476	-6,22710622710623	-5,86080586080586
10881	1859	1828	1858	6332,06176757813	5,49450549450549	-5,86080586080586	-5,49450549450549
11041	1858	1829	1858	6336,94458007813	5,12820512820513	-5,49450549450549	-5,49450549450549
11201	1858	1829	1859	6341,82739257813	5,12820512820513	-5,49450549450549	-5,86080586080586
11361	1860	1829	1858	6346,71020507813	5,12820512820513	-6,22710622710623	-5,49450549450549
11521	1860	1829	1858	6351,59301757813	5,12820512820513	-6,22710622710623	-5,49450549450549
11681	1860	1829	1858	6356,47583007813	5,12820512820513	-6,22710622710623	-5,49450549450549
11841	1864	1830	1860	6361,35864257813	4,76190476190476	-7,69230769230769	-6,22710622710623
12001	1864	1829	1859	6366,24145507813	5,12820512820513	-7,69230769230769	-5,86080586080586
12161	1861	1829	1858	6371,12426757813	5,12820512820513	-6,59340659340659	-5,49450549450549
12321	1856	1828	1858	6376,00708007813	5,49450549450549	-4,76190476190476	-5,49450549450549
12481	1852	1827	1857	6380,88989257813	5,86080586080586	-3,2967032967033	-5,12820512820513
12641	1852	1828	1859	6385,77270507813	5,49450549450549	-3,2967032967033	-5,86080586080586
12801	1851	1828	1857	6390,65551757813	5,49450549450549	-2,93040293040293	-5,12820512820513
12961	1852	1828	1859	6395,53833007813	5,49450549450549	-3,2967032967033	-5,86080586080586
13121	1853	1829	1859	6400,42114257813	5,12820512820513	-3,66300366300366	-5,86080586080586
13281	1852	1830	1859	6405,30395507813	4,76190476190476	-3,2967032967033	-5,86080586080586
13441	1856	1830	1859	6410,18676757813	4,76190476190476	-4,76190476190476	-5,86080586080586
13601	1859	1830	1859	6415,06958007813	4,76190476190476	-5,86080586080586	-5,86080586080586
13761	1867	1829	1859	6419,95239257813	5,12820512820513	-8,79120879120879	-5,86080586080586
13921	1868	1831	1858	6424,83520507813	4,3956043956044	-9,15750915750916	-5,49450549450549
14081	1866	1828	1859	6429,71801757813	5,49450549450549	-8,42490842490843	-5,86080586080586
14241	1865	1828	1858	6434,60083007813	5,49450549450549	-8,05860805860806	-5,49450549450549
14401	1867	1831	1861	6439,48364257813	4,3956043956044	-8,79120879120879	-6,59340659340659
14561	1865	1829	1859	6444,36645507813	5,12820512820513	-8,05860805860806	-5,86080586080586
14721	1862	1828	1858	6449,24926757813	5,49450549450549	-6,95970695970696	-5,49450549450549
14881	1855	1830	1859	6454,13208007813	4,76190476190476	-4,3956043956044	-5,86080586080586
15041	1855	1827	1858	6459,01489257813	5,86080586080586	-4,3956043956044	-5,49450549450549
15201	1857	1830	1860	6463,89770507813	4,76190476190476	-5,12820512820513	-6,22710622710623
15361	1857	1830	1859	6468,78051757813	4,76190476190476	-5,12820512820513	-5,86080586080586
15521	1856	1829	1859	6473,66333007813	5,12820512820513	-4,76190476190476	-5,86080586080586
15681	1858	1827	1858	6478,54614257813	5,86080586080586	-5,49450549450549	-5,49450549450549
15841	1862	1830	1858	6483,42895507813	4,76190476190476	-6,95970695970696	-5,49450549450549
16001	1862	1829	1858	6488,31176757813	5,12820512820513	-6,95970695970696	-5,49450549450549
16161	1860	1827	1858	6493,19458007813	5,86080586080586	-6,22710622710623	-5,49450549450549
16321	1861	1828	1859	6498,07739257813	5,49450549450549	-6,59340659340659	-5,86080586080586
16481	1862	1829	1858	6502,96020507813	5,12820512820513	-6,95970695970696	-5,49450549450549
16641	1861	1827	1859	6507,84301757813	5,86080586080586	-6,59340659340659	-5,86080586080586
16801	1860	1829	1860	6512,72583007813	5,12820512820513	-6,22710622710623	-6,22710622710623
16961	1861	1829	1860	6517,60864257813	5,12820512820513	-6,59340659340659	-6,22710622710623
17121	1864	1828	1860	6522,49145507813	5,49450549450549	-7,69230769230769	-6,22710622710623
17281	1865	1828	1858	6527,37426757813	5,49450549450549	-8,05860805860806	-5,49450549450549
17441	1864	1827	1858	6532,25708007813	5,86080586080586	-7,69230769230769	-5,49450549450549
17601	1862	1829	1858	6537,13989257813	5,12820512820513	-6,95970695970696	-5,49450549450549
17761	1863	1829	1858	6542,02270507813	5,12820512820513	-7,32600732600733	-5,49450549450549
17921	1862	1830	1860	6546,90551757813	4,76190476190476	-6,95970695970696	-6,22710622710623
18081	1859	1829	1859	6551,78833007813	5,12820512820513	-5,86080586080586	-5,86080586080586
18241	1859	1828	1858	6556,67114257813	5,49450549450549	-5,86080586080586	-5,49450549450549
18401	1859	1829	1858	6561,55395507813	5,12820512820513	-5,86080586080586	-5,49450549450549
18561	1862	1830	1859	6566,43676757813	4,76190476190476	-6,95970695970696	-5,86080586080586
18721	1862	1829	1859	6571,31958007813	5,12820512820513	-6,95970695970696	-5,86080586080586
18881	1863	1829	1859	6576,20239257813	5,12820512820513	-7,32600732600733	-5,86080586080586
19041	1859	1829	1858	6581,08520507813	5,12820512820513	-5,86080586080586	-5,49450549450549
19201	1856	1829	1859	6585,96801757813	5,12820512820513	-4,76190476190476	-5,86080586080586
19361	1854	1830	1859	6590,85083007813	4,76190476190476	-4,02930402930403	-5,86080586080586
19521	1850	1827	1857	6595,73364257813	5,86080586080586	-2,56410256410256	-5,12820512820513
19681	1849	1829	1857	6600,61645507813	5,12820512820513	-2,1978021978022	-5,12820512820513
19841	1846	1827	1859	6605,49926757813	5,86080586080586	-1,0989010989011	-5,86080586080586
20001	1844	1829	1859	6610,38208007813	5,12820512820513	-0,366300366300366	-5,86080586080586
20161	1845	1827	1857	6615,26489257813	5,86080586080586	-0,732600732600733	-5,12820512820513
20321	1848	1830	1859	6620,14770507813	4,76190476190476	-1,83150183150183	-5,86080586080586
20481	1847	1829	1860	6625,03051757813	5,12820512820513	-1,46520146520147	-6,22710622710623
20641	1848	1827	1859	6629,91333007813	5,86080586080586	-1,83150183150183	-5,86080586080586
20801	1854	1828	1857	6634,79614257813	5,49450549450549	-4,02930402930403	-5,12820512820513
20961	1857	1829	1858	6639,67895507813	5,12820512820513	-5,12820512820513	-5,49450549450549
21121	1857	1828	1858	6644,56176757813	5,49450549450549	-5,12820512820513	-5,49450549450549
21281	1857	1828	1858	6649,44458007813	5,49450549450549	-5,12820512820513	-5,49450549450549
21441	1862	1829	1860	6654,32739257813	5,12820512820513	-6,95970695970696	-6,22710622710623
21601	1869	1830	1859	6659,21020507813	4,76190476190476	-9,52380952380953	-5,86080586080586
21761	1872	1830	1859	6664,09301757813	4,76190476190476	-10,6227106227106	-5,86080586080586
21921	1874	1829	1858	6668,97583007813	5,12820512820513	-11,3553113553114	-5,49450549450549
22081	1871	1830	1859	6673,85864257813	4,76190476190476	-10,2564102564103	-5,86080586080586
22241	1864	1831	1861	6678,74145507813	4,3956043956044	-7,69230769230769	-6,59340659340659
22401	1851	1828	1857	6683,62426757813	5,49450549450549	-2,93040293040293	-5,12820512820513
22561	1843	1825	1858	6688,50708007813	6,59340659340659	0	-5,49450549450549
22721	1848	1830	1860	6693,38989257813	4,76190476190476	-1,83150183150183	-6,22710622710623
22881	1857	1831	1860	6698,27270507813	4,3956043956044	-5,12820512820513	-6,22710622710623
23041	1857	1829	1858	6703,15551757813	5,12820512820513	-5,12820512820513	-5,49450549450549
23201	1855	1829	1858	6708,03833007813	5,12820512820513	-4,3956043956044	-5,49450549450549
23361	1850	1830	1859	6712,92114257813	4,76190476190476	-2,56410256410256	-5,86080586080586
23521	1846	1827	1857	6717,80395507813	5,86080586080586	-1,0989010989011	-5,12820512820513
23681	1846	1830	1859	6722,68676757813	4,76190476190476	-1,0989010989011	-5,86080586080586
23841	1846	1830	1860	6727,56958007813	4,76190476190476	-1,0989010989011	-6,22710622710623
24001	1846	1829	1859	6732,45239257813	5,12820512820513	-1,0989010989011	-5,86080586080586
24161	1846	1827	1858	6737,33520507813	5,86080586080586	-1,0989010989011	-5,49450549450549
24321	1851	1828	1857	6742,21801757813	5,49450549450549	-2,93040293040293	-5,12820512820513
24481	1854	1827	1858	6747,10083007813	5,86080586080586	-4,02930402930403	-5,49450549450549
24641	1853	1828	1858	6751,98364257813	5,49450549450549	-3,66300366300366	-5,49450549450549
24801	1853	1827	1857	6756,86645507813	5,86080586080586	-3,66300366300366	-5,12820512820513
24961	1856	1829	1859	6761,74926757813	5,12820512820513	-4,76190476190476	-5,86080586080586
25121	1855	1829	1858	6766,63208007813	5,12820512820513	-4,3956043956044	-5,49450549450549
25281	1854	1829	1860	6771,51489257813	5,12820512820513	-4,02930402930403	-6,22710622710623
25441	1855	1830	1860	6776,39770507813	4,76190476190476	-4,3956043956044	-6,22710622710623
25601	1859	1830	1861	6781,28051757813	4,76190476190476	-5,86080586080586	-6,59340659340659
25761	1857	1829	1858	6786,16333007813	5,12820512820513	-5,12820512820513	-5,49450549450549
25921	1855	1829	1858	6791,04614257813	5,12820512820513	-4,3956043956044	-5,49450549450549
26081	1853	1827	1858	6795,92895507813	5,86080586080586	-3,66300366300366	-5,49450549450549
26241	1856	1828	1858	6800,81176757813	5,49450549450549	-4,76190476190476	-5,49450549450549
26401	1862	1831	1862	6805,69458007813	4,3956043956044	-6,95970695970696	-6,95970695970696
26561	1866	1831	1859	6810,57739257813	4,3956043956044	-8,42490842490843	-5,86080586080586
26721	1869	1831	1857	6815,46020507813	4,3956043956044	-9,52380952380953	-5,12820512820513
26881	1868	1830	1859	6820,34301757813	4,76190476190476	-9,15750915750916	-5,86080586080586
27041	1868	1826	1858	6825,22583007813	6,22710622710623	-9,15750915750916	-5,49450549450549
27201	1863	1830	1860	6830,10864257813	4,76190476190476	-7,32600732600733	-6,22710622710623
27361	1858	1829	1862	6834,99145507813	5,12820512820513	-5,49450549450549	-6,95970695970696
27521	1857	1829	1859	6839,87426757813	5,12820512820513	-5,12820512820513	-5,86080586080586
27681	1856	1829	1856	6844,75708007813	5,12820512820513	-4,76190476190476	-4,76190476190476
27841	1856	1827	1859	6849,63989257813	5,86080586080586	-4,76190476190476	-5,86080586080586
28001	1855	1829	1859	6854,52270507813	5,12820512820513	-4,3956043956044	-5,86080586080586
28161	1854	1828	1858	6859,40551757813	5,49450549450549	-4,02930402930403	-5,49450549450549
28321	1857	1828	1858	6864,28833007813	5,49450549450549	-5,12820512820513	-5,49450549450549
28481	1859	1829	1858	6869,17114257813	5,12820512820513	-5,86080586080586	-5,49450549450549
28641	1858	1828	1858	6874,05395507813	5,49450549450549	-5,49450549450549	-5,49450549450549
28801	1860	1830	1859	6878,93676757813	4,76190476190476	-6,22710622710623	-5,86080586080586
28961	1863	1830	1859	6883,81958007813	4,76190476190476	-7,32600732600733	-5,86080586080586
29121	1862	1830	1858	6888,70239257813	4,76190476190476	-6,95970695970696	-5,49450549450549
29281	1858	1828	1858	6893,58520507813	5,49450549450549	-5,49450549450549	-5,49450549450549
29441	1854	1827	1859	6898,46801757813	5,86080586080586	-4,02930402930403	-5,86080586080586
29601	1855	1827	1858	6903,35083007813	5,86080586080586	-4,3956043956044	-5,49450549450549
29761	1856	1829	1858	6908,23364257813	5,12820512820513	-4,76190476190476	-5,49450549450549
29921	1855	1828	1858	6913,11645507813	5,49450549450549	-4,3956043956044	-5,49450549450549
30081	1857	1829	1859	6917,99926757813	5,12820512820513	-5,12820512820513	-5,86080586080586
30241	1857	1829	1858	6922,88208007813	5,12820512820513	-5,12820512820513	-5,49450549450549
30401	1858	1828	1858	6927,76489257813	5,49450549450549	-5,49450549450549	-5,49450549450549
30561	1860	1830	1859	6932,64770507813	4,76190476190476	-6,22710622710623	-5,86080586080586
30721	1862	1831	1860	6937,53051757813	4,3956043956044	-6,95970695970696	-6,22710622710623
30881	1858	1830	1860	6942,41333007813	4,76190476190476	-5,49450549450549	-6,22710622710623
31041	1854	1829	1858	6947,29614257813	5,12820512820513	-4,02930402930403	-5,49450549450549
31201	1852	1829	1859	6952,17895507813	5,12820512820513	-3,2967032967033	-5,86080586080586
31361	1854	1832	1860	6957,06176757813	4,02930402930403	-4,02930402930403	-6,22710622710623
31521	1855	1830	1862	6961,94458007813	4,76190476190476	-4,3956043956044	-6,95970695970696
31681	1854	1828	1858	6966,82739257813	5,49450549450549	-4,02930402930403	-5,49450549450549
31841	1856	1829	1856	6971,71020507813	5,12820512820513	-4,76190476190476	-4,76190476190476
32001	1856	1827	1858	6976,59301757813	5,86080586080586	-4,76190476190476	-5,49450549450549
32161	1859	1827	1859	6981,47583007813	5,86080586080586	-5,86080586080586	-5,86080586080586
32321	1865	1829	1859	6986,35864257813	5,12820512820513	-8,05860805860806	-5,86080586080586
32481	1868	1830	1861	6991,24145507813	4,76190476190476	-9,15750915750916	-6,59340659340659
32641	1871	1828	1858	6996,12426757813	5,49450549450549	-10,2564102564103	-5,49450549450549
32801	1876	1828	1858	7001,00708007813	5,49450549450549	-12,0879120879121	-5,49450549450549
32961	1882	1829	1858	7005,88989257813	5,12820512820513	-14,2857142857143	-5,49450549450549
33121	1888	1829	1859	7010,77270507813	5,12820512820513	-16,4835164835165	-5,86080586080586
33281	1898	1828	1861	7015,65551757813	5,49450549450549	-20,1465201465202	-6,59340659340659
33441	1910	1831	1860	7020,53833007813	4,3956043956044	-24,5421245421245	-6,22710622710623
33601	1913	1833	1861	7025,42114257813	3,66300366300366	-25,6410256410256	-6,59340659340659
33761	1907	1831	1859	7030,30395507813	4,3956043956044	-23,4432234432234	-5,86080586080586
33921	1903	1832	1861	7035,18676757813	4,02930402930403	-21,978021978022	-6,59340659340659
34081	1898	1833	1861	7040,06958007813	3,66300366300366	-20,1465201465202	-6,59340659340659
34241	1893	1831	1860	7044,95239257813	4,3956043956044	-18,3150183150183	-6,22710622710623
34401	1887	1829	1858	7049,83520507813	5,12820512820513	-16,1172161172161	-5,49450549450549
34561	1879	1828	1857	7054,71801757813	5,49450549450549	-13,1868131868132	-5,12820512820513
34721	1873	1827	1858	7059,60083007813	5,86080586080586	-10,989010989011	-5,49450549450549
34881	1866	1829	1858	7064,48364257813	5,12820512820513	-8,42490842490843	-5,49450549450549
35041	1864	1829	1858	7069,36645507813	5,12820512820513	-7,69230769230769	-5,49450549450549
35201	1866	1829	1858	7074,24926757813	5,12820512820513	-8,42490842490843	-5,49450549450549
35361	1864	1830	1859	7079,13208007813	4,76190476190476	-7,69230769230769	-5,86080586080586
35521	1864	1828	1858	7084,01489257813	5,49450549450549	-7,69230769230769	-5,49450549450549
35681	1867	1830	1860	7088,89770507813	4,76190476190476	-8,79120879120879	-6,22710622710623
35841	1868	1830	1859	7093,78051757813	4,76190476190476	-9,15750915750916	-5,86080586080586
36001	1860	1829	1860	7098,66333007813	5,12820512820513	-6,22710622710623	-6,22710622710623
36161	1855	1828	1858	7103,54614257813	5,49450549450549	-4,3956043956044	-5,49450549450549
36321	1850	1827	1857	7108,42895507813	5,86080586080586	-2,56410256410256	-5,12820512820513
36481	1853	1831	1860	7113,31176757813	4,3956043956044	-3,66300366300366	-6,22710622710623
36641	1853	1829	1860	7118,19458007813	5,12820512820513	-3,66300366300366	-6,22710622710623
36801	1853	1829	1859	7123,07739257813	5,12820512820513	-3,66300366300366	-5,86080586080586
36961	1853	1827	1858	7127,96020507813	5,86080586080586	-3,66300366300366	-5,49450549450549
37121	1850	1827	1857	7132,84301757813	5,86080586080586	-2,56410256410256	-5,12820512820513
37281	1847	1828	1858	7137,72583007813	5,49450549450549	-1,46520146520147	-5,49450549450549
37441	1846	1830	1859	7142,60864257813	4,76190476190476	-1,0989010989011	-5,86080586080586
37601	1840	1829	1858	7147,49145507813	5,12820512820513	1,0989010989011	-5,49450549450549
37761	1832	1827	1857	7152,37426757813	5,86080586080586	4,02930402930403	-5,12820512820513
37921	1826	1829	1859	7157,25708007813	5,12820512820513	6,22710622710623	-5,86080586080586
38081	1816	1826	1855	7162,13989257813	6,22710622710623	9,89010989010989	-4,3956043956044
38241	1808	1825	1856	7167,02270507813	6,59340659340659	12,8205128205128	-4,76190476190476
38401	1805	1805	1855	7171,90551757813	13,9194139194139	13,9194139194139	-4,3956043956044
38561	1788	1806	1854	7176,78833007813	13,5531135531136	20,1465201465202	-4,02930402930403
38721	1778	1803	1852	7181,67114257813	14,6520146520147	23,8095238095238	-3,2967032967033
38881	1786	1798	1848	7186,55395507813	16,4835164835165	20,8791208791209	-1,83150183150183
39041	1857	1827	1806	7191,43676757813	5,86080586080586	-5,12820512820513	13,5531135531136
39201	1839	1854	1787	7196,31958007813	-4,02930402930403	1,46520146520147	20,5128205128205
39361	1833	1870	1767	7201,20239257813	-9,89010989010989	3,66300366300366	27,8388278388278
39521	1836	1878	1749	7206,08520507813	-12,8205128205128	2,56410256410256	34,4322344322344
39681	1840	1879	1730	7210,96801757813	-13,1868131868132	1,0989010989011	41,3919413919414
39841	1840	1882	1706	7215,85083007813	-14,2857142857143	1,0989010989011	50,1831501831502
40001	1831	1882	1689	7220,73364257813	-14,2857142857143	4,3956043956044	56,4102564102564
40161	1832	1877	1715	7225,61645507813	-12,4542124542125	4,02930402930403	46,8864468864469
40321	1830	1862	1730	7230,49926757813	-6,95970695970696	4,76190476190476	41,3919413919414
40481	1831	1852	1731	7235,38208007813	-3,2967032967033	4,3956043956044	41,025641025641
40641	1838	1855	1723	7240,26489257813	-4,3956043956044	1,83150183150183	43,956043956044
40801	1844	1861	1721	7245,14770507813	-6,59340659340659	-0,366300366300366	44,6886446886447
40961	1851	1869	1718	7250,03051757813	-9,52380952380953	-2,93040293040293	45,7875457875458
41121	1852	1867	1719	7254,91333007813	-8,79120879120879	-3,2967032967033	45,4212454212454
41281	1861	1863	1715	7259,79614257813	-7,32600732600733	-6,59340659340659	46,8864468864469
41441	1870	1862	1707	7264,67895507813	-6,95970695970696	-9,89010989010989	49,8168498168498
41601	1868	1850	1697	7269,56176757813	-2,56410256410256	-9,15750915750916	53,4798534798535
41761	1872	1833	1693	7274,44458007813	3,66300366300366	-10,6227106227106	54,9450549450549
41921	1874	1824	1685	7279,32739257813	6,95970695970696	-11,3553113553114	57,8754578754579
42081	1880	1829	1668	7284,21020507813	5,12820512820513	-13,5531135531136	64,1025641025641
42241	1896	1836	1650	7289,09301757813	2,56410256410256	-19,4139194139194	70,6959706959707
42401	1916	1838	1628	7293,97583007813	1,83150183150183	-26,7399267399267	78,7545787545788
42561	1912	1828	1608	7298,85864257813	5,49450549450549	-25,2747252747253	86,0805860805861
42721	1912	1822	1586	7303,74145507813	7,69230769230769	-25,2747252747253	94,1391941391941
42881	1917	1825	1560	7308,62426757813	6,59340659340659	-27,1062271062271	103,663003663004
43041	1938	1846	1520	7313,50708007813	-1,0989010989011	-34,7985347985348	118,315018315018
43201	1944	1850	1488	7318,38989257813	-2,56410256410256	-36,996336996337	130,03663003663
43361	1957	1850	1469	7323,27270507813	-2,56410256410256	-41,7582417582418	136,996336996337
43521	1978	1847	1440	7328,15551757813	-1,46520146520147	-49,4505494505495	147,619047619048
43681	1990	1830	1402	7333,03833007813	4,76190476190476	-53,8461538461539	161,538461538462
43841	1998	1819	1350	7337,92114257813	8,79120879120879	-56,7765567765568	180,586080586081
44001	2000	1823	1306	7342,80395507813	7,32600732600733	-57,5091575091575	196,703296703297
44161	1991	1818	1270	7347,68676757813	9,15750915750916	-54,2124542124542	209,89010989011
44321	1976	1809	1227	7352,56958007813	12,4542124542125	-48,7179487179487	225,641025641026
44481	1957	1791	1188	7357,45239257813	19,0476190476191	-41,7582417582418	239,92673992674
44641	1929	1777	1154	7362,33520507813	24,1758241758242	-31,5018315018315	252,380952380952
44801	1915	1779	1128	7367,21801757813	23,4432234432234	-26,3736263736264	261,904761904762
44961	1919	1786	1103	7372,10083007813	20,8791208791209	-27,8388278388278	271,062271062271
45121	1918	1791	1075	7376,98364257813	19,0476190476191	-27,4725274725275	281,318681318681
45281	1918	1800	1050	7381,86645507813	15,7509157509158	-27,4725274725275	290,47619047619
45441	1908	1807	1032	7386,74926757813	13,1868131868132	-23,8095238095238	297,069597069597
45601	1876	1813	1009	7391,63208007813	10,989010989011	-12,0879120879121	305,494505494506
45761	1827	1816	988	7396,51489257813	9,89010989010989	5,86080586080586	313,186813186813
45921	1906	1810	995	7401,39770507813	12,0879120879121	-23,0769230769231	310,622710622711
46081	1894	1785	1018	7406,28051757813	21,2454212454212	-18,6813186813187	302,197802197802
46241	1861	1766	1034	7411,16333007813	28,2051282051282	-6,59340659340659	296,336996336996
46401	1829	1755	1055	7416,04614257813	32,2344322344322	5,12820512820513	288,644688644689
46561	1818	1736	1076	7420,92895507813	39,1941391941392	9,15750915750916	280,952380952381
46721	1812	1721	1094	7425,81176757813	44,6886446886447	11,3553113553114	274,358974358974
46881	1801	1713	1108	7430,69458007813	47,6190476190476	15,3846153846154	269,230769230769
47041	1778	1710	1118	7435,57739257813	48,7179487179487	23,8095238095238	265,567765567766
47201	1754	1706	1131	7440,46020507813	50,1831501831502	32,6007326007326	260,805860805861
47361	1734	1698	1146	7445,34301757813	53,1135531135531	39,9267399267399	255,311355311355
47521	1730	1684	1151	7450,22583007813	58,2417582417582	41,3919413919414	253,479853479853
47681	1711	1672	1150	7455,10864257813	62,6373626373626	48,3516483516484	253,846153846154
47841	1706	1669	1141	7459,99145507813	63,7362637362637	50,1831501831502	257,142857142857
48001	1702	1660	1140	7464,87426757813	67,032967032967	51,6483516483517	257,509157509158
48161	1714	1648	1148	7469,75708007813	71,4285714285714	47,2527472527473	254,578754578755
48321	1783	1655	1095	7474,63989257813	68,8644688644689	21,978021978022	273,992673992674
48481	1779	1640	1036	7479,52270507813	74,3589743589744	23,4432234432234	295,604395604396
48641	1810	1655	980	7484,40551757813	68,8644688644689	12,0879120879121	316,117216117216
48801	1874	1686	877	7489,28833007813	57,5091575091575	-11,3553113553114	353,846153846154
48961	1886	1718	817	7494,17114257813	45,7875457875458	-15,7509157509158	375,824175824176
49121	1873	1752	834	7499,05395507813	33,3333333333333	-10,989010989011	369,59706959707
49281	1889	1768	884	7503,93676757813	27,4725274725275	-16,8498168498169	351,282051282051
49441	1892	1779	931	7508,81958007813	23,4432234432234	-17,9487179487179	334,065934065934
49601	1895	1797	968	7513,70239257813	16,8498168498169	-19,0476190476191	320,512820512821
49761	1908	1813	1007	7518,58520507813	10,989010989011	-23,8095238095238	306,227106227106
49921	1918	1813	1060	7523,46801757813	10,989010989011	-27,4725274725275	286,813186813187
50081	1916	1802	1120	7528,35083007813	15,018315018315	-26,7399267399267	264,835164835165
50241	1914	1787	1168	7533,23364257813	20,5128205128205	-26,007326007326	247,252747252747
50401	1908	1779	1208	7538,11645507813	23,4432234432234	-23,8095238095238	232,600732600733
50561	1910	1775	1242	7542,99926757813	24,9084249084249	-24,5421245421245	220,14652014652
50721	1908	1781	1269	7547,88208007813	22,7106227106227	-23,8095238095238	210,25641025641
50881	1898	1792	1301	7552,76489257813	18,6813186813187	-20,1465201465202	198,534798534799
51041	1893	1810	1329	7557,64770507813	12,0879120879121	-18,3150183150183	188,278388278388
51201	1882	1820	1359	7562,53051757813	8,42490842490843	-14,2857142857143	177,289377289377
51361	1868	1824	1387	7567,41333007813	6,95970695970696	-9,15750915750916	167,032967032967
51521	1864	1821	1414	7572,29614257813	8,05860805860806	-7,69230769230769	157,142857142857
51681	1855	1820	1444	7577,17895507813	8,42490842490843	-4,3956043956044	146,153846153846
51841	1855	1821	1480	7582,06176757813	8,05860805860806	-4,3956043956044	132,967032967033
52001	1857	1815	1517	7586,94458007813	10,2564102564103	-5,12820512820513	119,413919413919
52161	1858	1812	1553	7591,82739257813	11,3553113553114	-5,49450549450549	106,227106227106
52321	1851	1811	1593	7596,71020507813	11,7216117216117	-2,93040293040293	91,5750915750916
52481	1847	1813	1631	7601,59301757813	10,989010989011	-1,46520146520147	77,6556776556777
52641	1846	1817	1665	7606,47583007813	9,52380952380953	-1,0989010989011	65,2014652014652
52801	1840	1825	1689	7611,35864257813	6,59340659340659	1,0989010989011	56,4102564102564
52961	1837	1832	1707	7616,24145507813	4,02930402930403	2,1978021978022	49,8168498168498
53121	1841	1833	1724	7621,12426757813	3,66300366300366	0,732600732600733	43,5897435897436
53281	1846	1834	1740	7626,00708007813	3,2967032967033	-1,0989010989011	37,7289377289377
53441	1861	1857	1752	7630,88989257813	-5,12820512820513	-6,59340659340659	33,3333333333333
53601	1864	1870	1767	7635,77270507813	-9,89010989010989	-7,69230769230769	27,8388278388278
53761	1872	1860	1795	7640,65551757813	-6,22710622710623	-10,6227106227106	17,5824175824176
53921	1875	1847	1815	7645,53833007813	-1,46520146520147	-11,7216117216117	10,2564102564103
54081	1879	1844	1825	7650,42114257813	-0,366300366300366	-13,1868131868132	6,59340659340659
54241	1881	1850	1830	7655,30395507813	-2,56410256410256	-13,9194139194139	4,76190476190476
54401	1888	1859	1834	7660,18676757813	-5,86080586080586	-16,4835164835165	3,2967032967033
54561	1891	1865	1836	7665,06958007813	-8,05860805860806	-17,5824175824176	2,56410256410256
54721	1892	1860	1836	7669,95239257813	-6,22710622710623	-17,9487179487179	2,56410256410256
54881	1894	1853	1835	7674,83520507813	-3,66300366300366	-18,6813186813187	2,93040293040293
55041	1894	1854	1838	7679,71801757813	-4,02930402930403	-18,6813186813187	1,83150183150183
55201	1884	1860	1840	7684,60083007813	-6,22710622710623	-15,018315018315	1,0989010989011
55361	1867	1863	1838	7689,48364257813	-7,32600732600733	-8,79120879120879	1,83150183150183
55521	1858	1866	1835	7694,36645507813	-8,42490842490843	-5,49450549450549	2,93040293040293
55681	1852	1870	1832	7699,24926757813	-9,89010989010989	-3,2967032967033	4,02930402930403
55841	1842	1877	1826	7704,13208007813	-12,4542124542125	0,366300366300366	6,22710622710623
56001	1833	1880	1821	7709,01489257813	-13,5531135531136	3,66300366300366	8,05860805860806
56161	1829	1879	1818	7713,89770507813	-13,1868131868132	5,12820512820513	9,15750915750916
56321	1828	1879	1811	7718,78051757813	-13,1868131868132	5,49450549450549	11,7216117216117
56481	1826	1886	1795	7723,66333007813	-15,7509157509158	6,22710622710623	17,5824175824176
56641	1818	1881	1778	7728,54614257813	-13,9194139194139	9,15750915750916	23,8095238095238
56801	1822	1871	1764	7733,42895507813	-10,2564102564103	7,69230769230769	28,9377289377289
56961	1824	1862	1751	7738,31176757813	-6,95970695970696	6,95970695970696	33,6996336996337
57121	1827	1849	1741	7743,19458007813	-2,1978021978022	5,86080586080586	37,3626373626374
57281	1833	1838	1733	7748,07739257813	1,83150183150183	3,66300366300366	40,2930402930403
57441	1834	1828	1724	7752,96020507813	5,49450549450549	3,2967032967033	43,5897435897436
57601	1837	1827	1715	7757,84301757813	5,86080586080586	2,1978021978022	46,8864468864469
57761	1841	1826	1701	7762,72583007813	6,22710622710623	0,732600732600733	52,014652014652
57921	1838	1831	1689	7767,60864257813	4,3956043956044	1,83150183150183	56,4102564102564
58081	1838	1840	1668	7772,49145507813	1,0989010989011	1,83150183150183	64,1025641025641
58241	1848	1847	1646	7777,37426757813	-1,46520146520147	-1,83150183150183	72,1611721611722
58401	1856	1847	1630	7782,25708007813	-1,46520146520147	-4,76190476190476	78,021978021978
58561	1861	1841	1625	7787,13989257813	0,732600732600733	-6,59340659340659	79,8534798534799
58721	1861	1832	1619	7792,02270507813	4,02930402930403	-6,59340659340659	82,0512820512821
58881	1854	1823	1617	7796,90551757813	7,32600732600733	-4,02930402930403	82,7838827838828
59041	1844	1820	1625	7801,78833007813	8,42490842490843	-0,366300366300366	79,8534798534799
59201	1844	1821	1641	7806,67114257813	8,05860805860806	-0,366300366300366	73,992673992674
59361	1847	1815	1658	7811,55395507813	10,2564102564103	-1,46520146520147	67,7655677655678
59521	1848	1808	1676	7816,43676757813	12,8205128205128	-1,83150183150183	61,1721611721612
59681	1844	1800	1688	7821,31958007813	15,7509157509158	-0,366300366300366	56,7765567765568
59841	1839	1798	1700	7826,20239257813	16,4835164835165	1,46520146520147	52,3809523809524
60001	1836	1796	1707	7831,08520507813	17,2161172161172	2,56410256410256	49,8168498168498
60161	1832	1798	1711	7835,96801757813	16,4835164835165	4,02930402930403	48,3516483516484
60321	1830	1800	1712	7840,85083007813	15,7509157509158	4,76190476190476	47,985347985348
60481	1830	1801	1714	7845,73364257813	15,3846153846154	4,76190476190476	47,2527472527473
60641	1835	1794	1720	7850,61645507813	17,9487179487179	2,93040293040293	45,0549450549451
60801	1830	1777	1509	7855,49926757813	24,1758241758242	4,76190476190476	122,344322344322
60961	1876	1827	1632	7860,38208007813	5,86080586080586	-12,0879120879121	77,2893772893773
61121	1811	1780	1878	7865,26489257813	23,0769230769231	11,7216117216117	-12,8205128205128
61281	1853	1805	1854	7870,14770507813	13,9194139194139	-3,66300366300366	-4,02930402930403
61441	1861	1839	1854	7875,03051757813	1,46520146520147	-6,59340659340659	-4,02930402930403
61601	1876	1846	1831	7879,91333007813	-1,0989010989011	-12,0879120879121	4,3956043956044
61761	1876	1842	1831	7884,79614257813	0,366300366300366	-12,0879120879121	4,3956043956044
61921	1878	1823	1829	7889,67895507813	7,32600732600733	-12,8205128205128	5,12820512820513
62081	1877	1839	1852	7894,56176757813	1,46520146520147	-12,4542124542125	-3,2967032967033
62241	1870	1832	1855	7899,44458007813	4,02930402930403	-9,89010989010989	-4,3956043956044
62401	1867	1829	1860	7904,32739257813	5,12820512820513	-8,79120879120879	-6,22710622710623
62561	1867	1810	1872	7909,21020507813	12,0879120879121	-8,79120879120879	-10,6227106227106
62721	1860	1807	1882	7914,09301757813	13,1868131868132	-6,22710622710623	-14,2857142857143
62881	1853	1810	1894	7918,97583007813	12,0879120879121	-3,66300366300366	-18,6813186813187
63041	1856	1827	1861	7923,85864257813	5,86080586080586	-4,76190476190476	-6,59340659340659
63201	1850	1839	1859	7928,74145507813	1,46520146520147	-2,56410256410256	-5,86080586080586
63361	1859	1858	1859	7933,62426757813	-5,49450549450549	-5,86080586080586	-5,86080586080586
63521	1852	1854	1859	7938,50708007813	-4,02930402930403	-3,2967032967033	-5,86080586080586
63681	1853	1855	1861	7943,38989257813	-4,3956043956044	-3,66300366300366	-6,59340659340659
63841	1852	1855	1860	7948,27270507813	-4,3956043956044	-3,2967032967033	-6,22710622710623
64001	1849	1854	1860	7953,15551757813	-4,02930402930403	-2,1978021978022	-6,22710622710623
64161	1850	1854	1859	7958,03833007813	-4,02930402930403	-2,56410256410256	-5,86080586080586
64321	1851	1856	1859	7962,92114257813	-4,76190476190476	-2,93040293040293	-5,86080586080586
64481	1849	1855	1858	7967,80395507813	-4,3956043956044	-2,1978021978022	-5,49450549450549
64641	1853	1859	1859	7972,68676757813	-5,86080586080586	-3,66300366300366	-5,86080586080586
64801	1853	1862	1860	7977,56958007813	-6,95970695970696	-3,66300366300366	-6,22710622710623
64961	1850	1861	1860	7982,45239257813	-6,59340659340659	-2,56410256410256	-6,22710622710623
65121	1850	1860	1859	7987,33520507813	-6,22710622710623	-2,56410256410256	-5,86080586080586
65281	1855	1855	1859	7992,21801757813	-4,3956043956044	-4,3956043956044	-5,86080586080586
65441	1857	1852	1861	7997,10083007813	-3,2967032967033	-5,12820512820513	-6,59340659340659
65	1856	1844	1858	8001,98364257813	-0,366300366300366	-4,76190476190476	-5,49450549450549
225	1856	1841	1858	8006,86645507813	0,732600732600733	-4,76190476190476	-5,49450549450549
385	1857	1838	1858	8011,74926757813	1,83150183150183	-5,12820512820513	-5,49450549450549
545	1856	1838	1858	8016,63208007813	1,83150183150183	-4,76190476190476	-5,49450549450549
705	1856	1838	1858	8021,51489257813	1,83150183150183	-4,76190476190476	-5,49450549450549
865	1857	1839	1860	8026,39770507813	1,46520146520147	-5,12820512820513	-6,22710622710623
1025	1856	1838	1859	8031,28051757813	1,83150183150183	-4,76190476190476	-5,86080586080586
1185	1853	1835	1859	8036,16333007813	2,93040293040293	-3,66300366300366	-5,86080586080586
1345	1852	1834	1858	8041,04614257813	3,2967032967033	-3,2967032967033	-5,49450549450549
1505	1848	1835	1857	8045,92895507813	2,93040293040293	-1,83150183150183	-5,12820512820513
1665	1848	1836	1858	8050,81176757813	2,56410256410256	-1,83150183150183	-5,49450549450549
1825	1846	1836	1858	8055,69458007813	2,56410256410256	-1,0989010989011	-5,49450549450549
1985	1847	1837	1858	8060,57739257813	2,1978021978022	-1,46520146520147	-5,49450549450549
2145	1850	1840	1859	8065,46020507813	1,0989010989011	-2,56410256410256	-5,86080586080586
2305	1851	1843	1859	8070,34301757813	0	-2,93040293040293	-5,86080586080586
2465	1854	1840	1859	8075,22583007813	1,0989010989011	-4,02930402930403	-5,86080586080586
2625	1853	1842	1860	8080,10864257813	0,366300366300366	-3,66300366300366	-6,22710622710623
2785	1853	1840	1859	8084,99145507813	1,0989010989011	-3,66300366300366	-5,86080586080586
2945	1852	1839	1858	8089,87426757813	1,46520146520147	-3,2967032967033	-5,49450549450549
3105	1850	1839	1859	8094,75708007813	1,46520146520147	-2,56410256410256	-5,86080586080586
3265	1851	1839	1860	8099,63989257813	1,46520146520147	-2,93040293040293	-6,22710622710623
3425	1851	1837	1861	8104,52270507813	2,1978021978022	-2,93040293040293	-6,59340659340659
3585	1847	1832	1859	8109,40551757813	4,02930402930403	-1,46520146520147	-5,86080586080586
3745	1842	1826	1857	8114,28833007813	6,22710622710623	0,366300366300366	-5,12820512820513
3905	1836	1824	1859	8119,17114257813	6,95970695970696	2,56410256410256	-5,86080586080586
4065	1835	1819	1858	8124,05395507813	8,79120879120879	2,93040293040293	-5,49450549450549
4225	1845	1818	1859	8128,93676757813	9,15750915750916	-0,732600732600733	-5,86080586080586
4385	1847	1817	1859	8133,81958007813	9,52380952380953	-1,46520146520147	-5,86080586080586
4545	1848	1817	1860	8138,70239257813	9,52380952380953	-1,83150183150183	-6,22710622710623
4705	1852	1816	1858	8143,58520507813	9,89010989010989	-3,2967032967033	-5,49450549450549
4865	1850	1817	1859	8148,46801757813	9,52380952380953	-2,56410256410256	-5,86080586080586
5025	1853	1820	1861	8153,35083007813	8,42490842490843	-3,66300366300366	-6,59340659340659
5185	1852	1821	1860	8158,23364257813	8,05860805860806	-3,2967032967033	-6,22710622710623
5345	1852	1821	1860	8163,11645507813	8,05860805860806	-3,2967032967033	-6,22710622710623
5505	1852	1824	1858	8167,99926757813	6,95970695970696	-3,2967032967033	-5,49450549450549
5665	1851	1826	1858	8172,88208007813	6,22710622710623	-2,93040293040293	-5,49450549450549
5825	1852	1829	1857	8177,76489257813	5,12820512820513	-3,2967032967033	-5,12820512820513
5985	1854	1833	1860	8182,64770507813	3,66300366300366	-4,02930402930403	-6,22710622710623
6145	1851	1835	1860	8187,53051757813	2,93040293040293	-2,93040293040293	-6,22710622710623
6305	1848	1835	1859	8192,41333007813	2,93040293040293	-1,83150183150183	-5,86080586080586
6465	1848	1837	1858	8197,29614257813	2,1978021978022	-1,83150183150183	-5,49450549450549
